pos,corr_resp,Pos,correctKey,trials.thisRepN,trials.thisTrialN,trials.thisN,trials.thisIndex,trials_2.thisRepN,trials_2.thisTrialN,trials_2.thisN,trials_2.thisIndex,thisRow.t,notes,trial.started,fixciation.started,fixciation_2.started,fixciation_3.started,fixciation_4.started,fixciation_5.started,fixciation.stopped,key_resp.started,trial.stopped,key_resp.keys,key_resp.corr,key_resp.rt,key_resp.duration,test.started,stimulus.started,stimulus_2.started,stimulus_3.started,stimulus_4.started,stimulus_5.started,stimulus_6.started,stimulus.stopped,key_resp_2.started,test.stopped,key_resp_2.keys,key_resp_2.corr,key_resp_2.rt,key_resp_2.duration,participant,session,date,expName,psychopyVersion,frameRate,expStart,
-50,a,,,0,0,0,0,,,,,0.1616111001931131,,0.15354750002734363,0.1616111001931131,1.009975700173527,1.009975700173527,1.009975700173527,1.009975700173527,1.1760596001986414,2.0098803001455963,7.402666900074109,a,1,5.369592399802059,None,,,,,,,,,,,,,,,304747,001,2024-11-26_16h28.03.313,PRIYANSHI.AU2220101_solo.project,2024.1.5,None,2024-11-26 16h28.11.365439 +0530,
-150,s,,,0,1,1,1,,,,,7.412250900175422,,7.405695900088176,7.412250900175422,8.409281700151041,8.409281700151041,8.409281700151041,8.409281700151041,8.42587300017476,9.409109700005502,9.878519400022924,s,1,0.46328300004824996,None,,,,,,,,,,,,,,,304747,001,2024-11-26_16h28.03.313,PRIYANSHI.AU2220101_solo.project,2024.1.5,None,2024-11-26 16h28.11.365439 +0530,
50,d,,,0,2,2,2,,,,,9.894035700010136,,9.879821800161153,9.894035700010136,10.89266540016979,10.89266540016979,10.89266540016979,10.89266540016979,10.89266540016979,11.892011600080878,11.962876700097695,d,1,0.05513380002230406,None,,,,,,,,,,,,,,,304747,001,2024-11-26_16h28.03.313,PRIYANSHI.AU2220101_solo.project,2024.1.5,None,2024-11-26 16h28.11.365439 +0530,
150,f,,,0,3,3,3,,,,,11.976415900047868,,11.96481700008735,11.976415900047868,12.975531600182876,12.975531600182876,12.975531600182876,12.975531600182876,12.975531600182876,13.9758262000978,16.56235530017875,g,0,2.5837723000440747,None,,,,,,,,,,,,,,,304747,001,2024-11-26_16h28.03.313,PRIYANSHI.AU2220101_solo.project,2024.1.5,None,2024-11-26 16h28.11.365439 +0530,
60,g,,,0,4,4,4,,,,,16.575398500077426,,16.56419669999741,16.575398500077426,17.57669120002538,17.57669120002538,17.57669120002538,17.57669120002538,17.57669120002538,18.5757939000614,18.594287000130862,a,0,0.008460799930617213,None,,,,,,,,,,,,,,,304747,001,2024-11-26_16h28.03.313,PRIYANSHI.AU2220101_solo.project,2024.1.5,None,2024-11-26 16h28.11.365439 +0530,
-50,a,,,1,0,5,0,,,,,18.609480899991468,,18.596264800056815,18.609480899991468,19.610147300176322,19.610147300176322,19.610147300176322,19.610147300176322,19.610147300176322,20.609188199974597,22.995441500097513,s,0,2.3774393000639975,None,,,,,,,,,,,,,,,304747,001,2024-11-26_16h28.03.313,PRIYANSHI.AU2220101_solo.project,2024.1.5,None,2024-11-26 16h28.11.365439 +0530,
-150,s,,,1,1,6,1,,,,,23.00886690011248,,22.997426700079814,23.00886690011248,24.00954240001738,24.00954240001738,24.00954240001738,24.00954240001738,24.00954240001738,25.008993900148198,25.209989700000733,d,0,None,None,,,,,,,,,,,,,,,304747,001,2024-11-26_16h28.03.313,PRIYANSHI.AU2220101_solo.project,2024.1.5,None,2024-11-26 16h28.11.365439 +0530,
50,d,,,1,2,7,2,,,,,25.22615160001442,,25.212102300021797,25.22615160001442,26.22688090009615,26.22688090009615,26.22688090009615,26.22688090009615,26.22688090009615,27.22573300008662,29.159906800137833,a,0,1.9203589998651296,None,,,,,,,,,,,,,,,304747,001,2024-11-26_16h28.03.313,PRIYANSHI.AU2220101_solo.project,2024.1.5,None,2024-11-26 16h28.11.365439 +0530,
150,f,,,1,3,8,3,,,,,29.17534810001962,,29.162068500183523,29.17534810001962,30.175617099972442,30.175617099972442,30.175617099972442,30.175617099972442,30.175617099972442,31.175233300076798,33.01370670017786,d,0,1.8235251000151038,None,,,,,,,,,,,,,,,304747,001,2024-11-26_16h28.03.313,PRIYANSHI.AU2220101_solo.project,2024.1.5,None,2024-11-26 16h28.11.365439 +0530,
60,g,,,1,4,9,4,,,,,33.024879300035536,,33.01503440015949,33.024879300035536,34.02601400017738,34.02601400017738,34.02601400017738,34.02601400017738,34.02601400017738,35.0256799000781,35.12766140000895,f,0,0.09957389999181032,None,,,,,,,,,,,,,,,304747,001,2024-11-26_16h28.03.313,PRIYANSHI.AU2220101_solo.project,2024.1.5,None,2024-11-26 16h28.11.365439 +0530,
-50,a,,,2,0,10,0,,,,,35.14258470013738,,35.12936060014181,35.14258470013738,36.14200710016303,36.14200710016303,36.14200710016303,36.14200710016303,36.15826639998704,37.14153520017862,37.15954660018906,s,0,0.0025893000420182943,None,,,,,,,,,,,,,,,304747,001,2024-11-26_16h28.03.313,PRIYANSHI.AU2220101_solo.project,2024.1.5,None,2024-11-26 16h28.11.365439 +0530,
-150,s,,,2,1,11,1,,,,,37.174970200052485,,37.16060950001702,37.174970200052485,38.15949280001223,38.15949280001223,38.15949280001223,38.15949280001223,38.17630920000374,39.15926310000941,42.02840459998697,s,1,2.8642898998223245,None,,,,,,,,,,,,,,,304747,001,2024-11-26_16h28.03.313,PRIYANSHI.AU2220101_solo.project,2024.1.5,None,2024-11-26 16h28.11.365439 +0530,
50,d,,,2,2,12,2,,,,,42.04243260016665,,42.029426000081,42.04243260016665,43.04327580006793,43.04327580006793,43.04327580006793,43.04327580006793,43.04327580006793,44.042874600039795,44.4775964000728,d,1,0.43230620003305376,None,,,,,,,,,,,,,,,304747,001,2024-11-26_16h28.03.313,PRIYANSHI.AU2220101_solo.project,2024.1.5,None,2024-11-26 16h28.11.365439 +0530,
150,f,,,2,3,13,3,,,,,44.49123070016503,,44.479440400144085,44.49123070016503,45.492130500031635,45.492130500031635,45.492130500031635,45.492130500031635,45.492130500031635,46.49164700019173,46.97775260009803,f,1,0.4822204001247883,None,,,,,,,,,,,,,,,304747,001,2024-11-26_16h28.03.313,PRIYANSHI.AU2220101_solo.project,2024.1.5,None,2024-11-26 16h28.11.365439 +0530,
60,g,,,2,4,14,4,,,,,46.99542890000157,,46.979257700033486,46.99542890000157,47.99187310016714,47.99187310016714,47.99187310016714,47.99187310016714,48.00761270010844,48.991844300180674,49.52622360014357,d,0,0.5211706999689341,None,,,,,,,,,,,,,,,304747,001,2024-11-26_16h28.03.313,PRIYANSHI.AU2220101_solo.project,2024.1.5,None,2024-11-26 16h28.11.365439 +0530,
-50,a,,,3,0,15,0,,,,,49.541157100116834,,49.527916100108996,49.541157100116834,50.542157400166616,50.542157400166616,50.542157400166616,50.542157400166616,50.542157400166616,51.54274840001017,51.75962680019438,s,0,0.21422130009159446,None,,,,,,,,,,,,,,,304747,001,2024-11-26_16h28.03.313,PRIYANSHI.AU2220101_solo.project,2024.1.5,None,2024-11-26 16h28.11.365439 +0530,
-150,s,,,3,1,16,1,,,,,51.77529050013982,,51.76143900002353,51.77529050013982,52.7754044001922,52.7754044001922,52.7754044001922,52.7754044001922,52.7754044001922,53.774490100098774,53.97762560006231,a,0,0.19640670018270612,None,,,,,,,,,,,,,,,304747,001,2024-11-26_16h28.03.313,PRIYANSHI.AU2220101_solo.project,2024.1.5,None,2024-11-26 16h28.11.365439 +0530,
50,d,,,3,2,17,2,,,,,53.991721500176936,,53.97903010016307,53.991721500176936,54.99215900013223,54.99215900013223,54.99215900013223,54.99215900013223,54.99215900013223,55.99063210003078,58.19386150012724,d,1,2.1964528001844883,None,,,,,,,,,,,,,,,304747,001,2024-11-26_16h28.03.313,PRIYANSHI.AU2220101_solo.project,2024.1.5,None,2024-11-26 16h28.11.365439 +0530,
150,f,,,3,3,18,3,,,,,58.20832179998979,,58.195275800069794,58.20832179998979,59.20993370003998,59.20993370003998,59.20993370003998,59.20993370003998,59.20993370003998,60.20814790017903,62.67770540015772,d,0,2.462481399998069,None,,,,,,,,,,,,,,,304747,001,2024-11-26_16h28.03.313,PRIYANSHI.AU2220101_solo.project,2024.1.5,None,2024-11-26 16h28.11.365439 +0530,
60,g,,,3,4,19,4,,,,,62.69202810013667,,62.67866159998812,62.69202810013667,63.67550030001439,63.67550030001439,63.67550030001439,63.67550030001439,63.691175000043586,64.69063069997355,64.70969659998082,s,0,0.014530600048601627,None,,,,,,,,,,,,,,,304747,001,2024-11-26_16h28.03.313,PRIYANSHI.AU2220101_solo.project,2024.1.5,None,2024-11-26 16h28.11.365439 +0530,
-50,a,,,4,0,20,0,,,,,64.72491590003483,,64.71110379998572,64.72491590003483,65.7247222000733,65.7247222000733,65.7247222000733,65.7247222000733,65.7247222000733,66.72529910015874,67.36169370007701,d,0,0.620210399851203,None,,,,,,,,,,,,,,,304747,001,2024-11-26_16h28.03.313,PRIYANSHI.AU2220101_solo.project,2024.1.5,None,2024-11-26 16h28.11.365439 +0530,
-150,s,,,4,1,21,1,,,,,67.37564910016954,,67.36276799999177,67.37564910016954,68.37408660002984,68.37408660002984,68.37408660002984,68.37408660002984,68.37408660002984,69.37421440007165,69.47551840008236,f,0,0.09574669995345175,None,,,,,,,,,,,,,,,304747,001,2024-11-26_16h28.03.313,PRIYANSHI.AU2220101_solo.project,2024.1.5,None,2024-11-26 16h28.11.365439 +0530,
50,d,,,4,2,22,2,,,,,69.49187969998457,,69.47638510004617,69.49187969998457,70.49131700000726,70.49131700000726,70.49131700000726,70.49131700000726,70.49131700000726,71.49078340013511,74.44221780006774,g,0,2.9420246998779476,None,,,,,,,,,,,,,,,304747,001,2024-11-26_16h28.03.313,PRIYANSHI.AU2220101_solo.project,2024.1.5,None,2024-11-26 16h28.11.365439 +0530,
150,f,,,4,3,23,3,,,,,74.4575420001056,,74.44369440013543,74.4575420001056,75.45850530010648,75.45850530010648,75.45850530010648,75.45850530010648,75.45850530010648,76.45750840008259,76.82548520015553,f,1,0.35093790013343096,None,,,,,,,,,,,,,,,304747,001,2024-11-26_16h28.03.313,PRIYANSHI.AU2220101_solo.project,2024.1.5,None,2024-11-26 16h28.11.365439 +0530,
60,g,,,4,4,24,4,,,,,76.84158640005626,,76.82644910016097,76.84158640005626,77.84100320003927,77.84100320003927,77.84100320003927,77.84100320003927,77.84100320003927,78.84082550019957,79.62631419999525,a,0,0.7689335001632571,None,,,,,,,,,,,,,,,304747,001,2024-11-26_16h28.03.313,PRIYANSHI.AU2220101_solo.project,2024.1.5,None,2024-11-26 16h28.11.365439 +0530,
-50,a,,,5,0,25,0,,,,,79.64094489999115,,79.62803850020282,79.64094489999115,80.64143360010348,80.64143360010348,80.64143360010348,80.64143360010348,80.64143360010348,81.64130360004492,83.12651810003445,s,0,1.4743536999449134,None,,,,,,,,,,,,,,,304747,001,2024-11-26_16h28.03.313,PRIYANSHI.AU2220101_solo.project,2024.1.5,None,2024-11-26 16h28.11.365439 +0530,
-150,s,,,5,1,26,1,,,,,83.14085980015807,,83.12842950015329,83.14085980015807,84.14018089999445,84.14018089999445,84.14018089999445,84.14018089999445,84.14018089999445,85.14028260018677,87.37549980008043,f,0,2.2203815998509526,None,,,,,,,,,,,,,,,304747,001,2024-11-26_16h28.03.313,PRIYANSHI.AU2220101_solo.project,2024.1.5,None,2024-11-26 16h28.11.365439 +0530,
50,d,,,5,2,27,2,,,,,87.39055300015025,,87.37649080017582,87.39055300015025,88.38986240001395,88.38986240001395,88.38986240001395,88.38986240001395,88.38986240001395,89.39030189998448,90.40950240008533,g,0,1.0025279000401497,None,,,,,,,,,,,,,,,304747,001,2024-11-26_16h28.03.313,PRIYANSHI.AU2220101_solo.project,2024.1.5,None,2024-11-26 16h28.11.365439 +0530,
150,f,,,5,3,28,3,,,,,90.42527390015312,,90.41108890017495,90.42527390015312,91.4241477001924,91.4241477001924,91.4241477001924,91.4241477001924,91.4241477001924,92.42341970000416,93.82570610009134,a,0,1.3939876998774707,None,,,,,,,,,,,,,,,304747,001,2024-11-26_16h28.03.313,PRIYANSHI.AU2220101_solo.project,2024.1.5,None,2024-11-26 16h28.11.365439 +0530,
60,g,,,5,4,29,4,,,,,93.84083070000634,,93.8277913001366,93.84083070000634,94.8417136000935,94.8417136000935,94.8417136000935,94.8417136000935,94.8417136000935,95.84136239998043,96.49235479999334,s,0,0.6350761000066996,None,,,,,,,,,,,,,,,304747,001,2024-11-26_16h28.03.313,PRIYANSHI.AU2220101_solo.project,2024.1.5,None,2024-11-26 16h28.11.365439 +0530,
-50,a,,,6,0,30,0,,,,,96.50674830004573,,96.49340030015446,96.50674830004573,97.50644530006684,97.50644530006684,97.50644530006684,97.50644530006684,97.50644530006684,98.5071719000116,101.60758260008879,f,0,3.0924221000168473,None,,,,,,,,,,,,,,,304747,001,2024-11-26_16h28.03.313,PRIYANSHI.AU2220101_solo.project,2024.1.5,None,2024-11-26 16h28.11.365439 +0530,
-150,s,,,6,1,31,1,,,,,101.62293240008876,,101.60944840009324,101.62293240008876,102.62377479998395,102.62377479998395,102.62377479998395,102.62377479998395,102.62377479998395,103.623514899984,103.70800109999254,s,1,0.07301809987984598,None,,,,,,,,,,,,,,,304747,001,2024-11-26_16h28.03.313,PRIYANSHI.AU2220101_solo.project,2024.1.5,None,2024-11-26 16h28.11.365439 +0530,
50,d,,,6,2,32,2,,,,,103.72444810019806,,103.70887560001574,103.72444810019806,104.7072121000383,104.7072121000383,104.7072121000383,104.7072121000383,104.72302540019155,105.72353320010006,107.45839749998413,s,0,1.721228800015524,None,,,,,,,,,,,,,,,304747,001,2024-11-26_16h28.03.313,PRIYANSHI.AU2220101_solo.project,2024.1.5,None,2024-11-26 16h28.11.365439 +0530,
150,f,,,6,3,33,3,,,,,107.47337510017678,,107.46002500015311,107.47337510017678,108.47344730002806,108.47344730002806,108.47344730002806,108.47344730002806,108.47344730002806,109.4729776000604,111.39137620013207,d,0,1.9103161999955773,None,,,,,,,,,,,,,,,304747,001,2024-11-26_16h28.03.313,PRIYANSHI.AU2220101_solo.project,2024.1.5,None,2024-11-26 16h28.11.365439 +0530,
60,g,,,6,4,34,4,,,,,111.40711490018293,,111.39231230015866,111.40711490018293,112.40646560001187,112.40646560001187,112.40646560001187,112.40646560001187,112.40646560001187,113.40699990000576,114.02512300014496,g,1,0.6102553999517113,None,,,,,,,,,,,,,,,304747,001,2024-11-26_16h28.03.313,PRIYANSHI.AU2220101_solo.project,2024.1.5,None,2024-11-26 16h28.11.365439 +0530,
-50,a,,,7,0,35,0,,,,,114.04057250008918,,114.02619110001251,114.04057250008918,115.04034509998746,115.04034509998746,115.04034509998746,115.04034509998746,115.04034509998746,116.04064630018547,116.37554999999702,g,0,0.3296493000816554,None,,,,,,,,,,,,,,,304747,001,2024-11-26_16h28.03.313,PRIYANSHI.AU2220101_solo.project,2024.1.5,None,2024-11-26 16h28.11.365439 +0530,
-150,s,,,7,1,36,1,,,,,116.39311270019971,,116.37664720020257,116.39311270019971,117.39046490006149,117.39046490006149,117.39046490006149,117.39046490006149,117.4064097001683,118.39022920001298,118.82437240006402,w,0,0.4237909000366926,None,,,,,,,,,,,,,,,304747,001,2024-11-26_16h28.03.313,PRIYANSHI.AU2220101_solo.project,2024.1.5,None,2024-11-26 16h28.11.365439 +0530,
50,d,,,7,2,37,2,,,,,118.84106830018573,,118.82532429997809,118.84106830018573,119.82423819997348,119.82423819997348,119.82423819997348,119.82423819997348,119.84019959997386,120.82347020017914,120.84247860009782,s,0,0.01432079984806478,None,,,,,,,,,,,,,,,304747,001,2024-11-26_16h28.03.313,PRIYANSHI.AU2220101_solo.project,2024.1.5,None,2024-11-26 16h28.11.365439 +0530,
150,f,,,7,3,38,3,,,,,120.85615480015986,,120.84371790010482,120.85615480015986,121.85754320002161,121.85754320002161,121.85754320002161,121.85754320002161,121.85754320002161,122.85709890001453,125.17429740005173,f,1,2.299787800060585,None,,,,,,,,,,,,,,,304747,001,2024-11-26_16h28.03.313,PRIYANSHI.AU2220101_solo.project,2024.1.5,None,2024-11-26 16h28.11.365439 +0530,
60,g,,,7,4,39,4,,,,,125.1892234000843,,125.17518380004913,125.1892234000843,126.18953100009821,126.18953100009821,126.18953100009821,126.18953100009821,126.18953100009821,127.18970950017683,128.0927723001223,s,0,0.8959202999249101,None,,,,,,,,,,,,,,,304747,001,2024-11-26_16h28.03.313,PRIYANSHI.AU2220101_solo.project,2024.1.5,None,2024-11-26 16h28.11.365439 +0530,
-50,a,,,8,0,40,0,,,,,128.10589420003816,,128.09465800016187,128.10589420003816,129.10772890015505,129.10772890015505,129.10772890015505,129.10772890015505,129.10772890015505,130.1057731001638,130.92359000002034,s,0,0.8090635999105871,None,,,,,,,,,,,,,,,304747,001,2024-11-26_16h28.03.313,PRIYANSHI.AU2220101_solo.project,2024.1.5,None,2024-11-26 16h28.11.365439 +0530,
-150,s,,,8,1,41,1,,,,,130.94092620001175,,130.92443640017882,130.94092620001175,131.92310300003737,131.92310300003737,131.92310300003737,131.92310300003737,131.957180300029,132.9401357001625,133.77328730002046,d,0,0.8236911999993026,None,,,,,,,,,,,,,,,304747,001,2024-11-26_16h28.03.313,PRIYANSHI.AU2220101_solo.project,2024.1.5,None,2024-11-26 16h28.11.365439 +0530,
50,d,,,8,2,42,2,,,,,133.78941770014353,,133.77507360000163,133.78941770014353,134.77319370000623,134.77319370000623,134.77319370000623,134.77319370000623,134.7899888001848,135.78965180017985,137.02369579998776,f,0,1.2208263000939041,None,,,,,,,,,,,,,,,304747,001,2024-11-26_16h28.03.313,PRIYANSHI.AU2220101_solo.project,2024.1.5,None,2024-11-26 16h28.11.365439 +0530,
150,f,,,8,3,43,3,,,,,137.03942220006138,,137.02472009998746,137.03942220006138,138.039017500123,138.039017500123,138.039017500123,138.039017500123,138.039017500123,139.03926920006052,140.99015390011482,s,0,1.9457342000678182,None,,,,,,,,,,,,,,,304747,001,2024-11-26_16h28.03.313,PRIYANSHI.AU2220101_solo.project,2024.1.5,None,2024-11-26 16h28.11.365439 +0530,
60,g,,,8,4,44,4,,,,,141.00566450017504,,140.99131980002858,141.00566450017504,142.0055655001197,142.0055655001197,142.0055655001197,142.0055655001197,142.0055655001197,143.00557760009542,144.10692739998922,a,0,1.0902463998645544,None,,,,,,,,,,,,,,,304747,001,2024-11-26_16h28.03.313,PRIYANSHI.AU2220101_solo.project,2024.1.5,None,2024-11-26 16h28.11.365439 +0530,
-50,a,,,9,0,45,0,,,,,144.12342500011437,,144.10786620015278,144.12342500011437,145.12380080018193,145.12380080018193,145.12380080018193,145.12380080018193,145.12380080018193,146.12195270019583,148.09215330006555,d,0,1.9561524000018835,None,,,,,,,,,,,,,,,304747,001,2024-11-26_16h28.03.313,PRIYANSHI.AU2220101_solo.project,2024.1.5,None,2024-11-26 16h28.11.365439 +0530,
-150,s,,,9,1,46,1,,,,,148.10618890007026,,148.09303350001574,148.10618890007026,149.10551939997822,149.10551939997822,149.10551939997822,149.10551939997822,149.10551939997822,150.10529280011542,150.60794420004822,a,0,0.49980759993195534,None,,,,,,,,,,,,,,,304747,001,2024-11-26_16h28.03.313,PRIYANSHI.AU2220101_solo.project,2024.1.5,None,2024-11-26 16h28.11.365439 +0530,
50,d,,,9,2,47,2,,,,,150.62254600017332,,150.6091644000262,150.62254600017332,151.62354429997504,151.62354429997504,151.62354429997504,151.62354429997504,151.62354429997504,152.6215683000628,153.20775940013118,d,1,0.5812797001563013,None,,,,,,,,,,,,,,,304747,001,2024-11-26_16h28.03.313,PRIYANSHI.AU2220101_solo.project,2024.1.5,None,2024-11-26 16h28.11.365439 +0530,
150,f,,,9,3,48,3,,,,,153.22577560017817,,153.20881039998494,153.22577560017817,154.22271900018677,154.22271900018677,154.22271900018677,154.22271900018677,154.23813730012625,155.22205310012214,157.09267580020241,f,1,1.8670521997846663,None,,,,,,,,,,,,,,,304747,001,2024-11-26_16h28.03.313,PRIYANSHI.AU2220101_solo.project,2024.1.5,None,2024-11-26 16h28.11.365439 +0530,
60,g,,,9,4,49,4,,,,,157.10526240011677,,157.09448900003918,157.10526240011677,158.1052543001715,158.1052543001715,158.1052543001715,158.1052543001715,158.1052543001715,159.1056848000735,159.45747200003825,s,0,0.34775019995868206,None,,,,,,,,,,,,,,,304747,001,2024-11-26_16h28.03.313,PRIYANSHI.AU2220101_solo.project,2024.1.5,None,2024-11-26 16h28.11.365439 +0530,
-50,a,,,10,0,50,0,,,,,159.47227710019797,,159.4591777001042,159.47227710019797,160.47247890010476,160.47247890010476,160.47247890010476,160.47247890010476,160.47247890010476,161.47200940013863,163.7734735000413,a,1,2.2856397998984903,None,,,,,,,,,,,,,,,304747,001,2024-11-26_16h28.03.313,PRIYANSHI.AU2220101_solo.project,2024.1.5,None,2024-11-26 16h28.11.365439 +0530,
-150,s,,,10,1,51,1,,,,,163.7888015001081,,163.77444670000114,163.7888015001081,164.78821040014736,164.78821040014736,164.78821040014736,164.78821040014736,164.78821040014736,165.78878680011258,167.09044080018066,g,0,1.291955400025472,None,,,,,,,,,,,,,,,304747,001,2024-11-26_16h28.03.313,PRIYANSHI.AU2220101_solo.project,2024.1.5,None,2024-11-26 16h28.11.365439 +0530,
50,d,,,10,2,52,2,,,,,167.10539060016163,,167.09215930011123,167.10539060016163,168.10556110017933,168.10556110017933,168.10556110017933,168.10556110017933,168.10556110017933,169.105049100006,171.17444099998102,g,0,2.052133900113404,None,,,,,,,,,,,,,,,304747,001,2024-11-26_16h28.03.313,PRIYANSHI.AU2220101_solo.project,2024.1.5,None,2024-11-26 16h28.11.365439 +0530,
150,f,,,10,3,53,3,,,,,171.18884259997867,,171.17598520009778,171.18884259997867,172.18863750016317,172.18863750016317,172.18863750016317,172.18863750016317,172.18863750016317,173.18997359997593,174.30724290013313,d,0,1.1118687998969108,None,,,,,,,,,,,,,,,304747,001,2024-11-26_16h28.03.313,PRIYANSHI.AU2220101_solo.project,2024.1.5,None,2024-11-26 16h28.11.365439 +0530,
60,g,,,10,4,54,4,,,,,174.32249090005644,,174.30885859997943,174.32249090005644,175.322299499996,175.322299499996,175.322299499996,175.322299499996,175.322299499996,176.32183560007252,178.54000949999318,a,0,2.214119000127539,None,,,,,,,,,,,,,,,304747,001,2024-11-26_16h28.03.313,PRIYANSHI.AU2220101_solo.project,2024.1.5,None,2024-11-26 16h28.11.365439 +0530,
-50,a,,,11,0,55,0,,,,,178.55549850012176,,178.54131200001575,178.55549850012176,179.56642529997043,179.56642529997043,179.56642529997043,179.56642529997043,179.56642529997043,180.55296980007552,181.28709140000865,s,0,0.7181270001456141,None,,,,,,,,,,,,,,,304747,001,2024-11-26_16h28.03.313,PRIYANSHI.AU2220101_solo.project,2024.1.5,None,2024-11-26 16h28.11.365439 +0530,
-150,s,,,11,1,56,1,,,,,181.30343990004621,,181.28760310006328,181.30343990004621,182.30336490017362,182.30336490017362,182.30336490017362,182.30336490017362,182.30336490017362,183.28734829998575,183.6877872000914,f,0,0.39579099998809397,None,,,,,,,,,,,,,,,304747,001,2024-11-26_16h28.03.313,PRIYANSHI.AU2220101_solo.project,2024.1.5,None,2024-11-26 16h28.11.365439 +0530,
50,d,,,11,2,57,2,,,,,183.70355700002983,,183.68880000011995,183.70355700002983,184.687247000169,184.687247000169,184.687247000169,184.687247000169,184.70418640016578,185.68738580006175,186.13764980016276,d,1,0.4335980999749154,None,,,,,,,,,,,,,,,304747,001,2024-11-26_16h28.03.313,PRIYANSHI.AU2220101_solo.project,2024.1.5,None,2024-11-26 16h28.11.365439 +0530,
150,f,,,11,3,58,3,,,,,186.15277990000322,,186.13813570002094,186.15277990000322,187.1537075000815,187.1537075000815,187.1537075000815,187.1537075000815,187.1537075000815,188.15345800016075,188.82319830008782,s,0,0.6648565998766571,None,,,,,,,,,,,,,,,304747,001,2024-11-26_16h28.03.313,PRIYANSHI.AU2220101_solo.project,2024.1.5,None,2024-11-26 16h28.11.365439 +0530,
60,g,,,11,4,59,4,,,,,188.83732150006108,,188.82370730000548,188.83732150006108,189.83888400020078,189.83888400020078,189.83888400020078,189.83888400020078,189.83888400020078,190.83660820010118,193.12108530011028,f,0,2.2763351001776755,None,,,,,,,,,,,,,,,304747,001,2024-11-26_16h28.03.313,PRIYANSHI.AU2220101_solo.project,2024.1.5,None,2024-11-26 16h28.11.365439 +0530,
-50,a,,,12,0,60,0,,,,,193.1372784001287,,193.121568800183,193.1372784001287,194.12183489999734,194.12183489999734,194.12183489999734,194.12183489999734,194.13754670019262,195.13612260017544,198.454879200086,s,0,3.316502899862826,None,,,,,,,,,,,,,,,304747,001,2024-11-26_16h28.03.313,PRIYANSHI.AU2220101_solo.project,2024.1.5,None,2024-11-26 16h28.11.365439 +0530,
-150,s,,,12,1,61,1,,,,,198.46929690008983,,198.4554622999858,198.46929690008983,199.45423720008694,199.45423720008694,199.45423720008694,199.45423720008694,199.47064070007764,200.47010050015524,202.40532750007696,f,0,1.9298392999917269,None,,,,,,,,,,,,,,,304747,001,2024-11-26_16h28.03.313,PRIYANSHI.AU2220101_solo.project,2024.1.5,None,2024-11-26 16h28.11.365439 +0530,
50,d,,,12,2,62,2,,,,,202.41888690018095,,202.40585980005562,202.41888690018095,203.4208788999822,203.4208788999822,203.4208788999822,203.4208788999822,203.4208788999822,204.42150880000554,204.80568490014412,g,0,0.38205130002461374,None,,,,,,,,,,,,,,,304747,001,2024-11-26_16h28.03.313,PRIYANSHI.AU2220101_solo.project,2024.1.5,None,2024-11-26 16h28.11.365439 +0530,
150,f,,,12,3,63,3,,,,,204.81992490007542,,204.80662200017832,204.81992490007542,205.82016690005548,205.82016690005548,205.82016690005548,205.82016690005548,205.82016690005548,206.81982730003074,207.58681300003082,a,0,0.7571129999123514,None,,,,,,,,,,,,,,,304747,001,2024-11-26_16h28.03.313,PRIYANSHI.AU2220101_solo.project,2024.1.5,None,2024-11-26 16h28.11.365439 +0530,
60,g,,,12,4,64,4,,,,,207.60262889997102,,207.58726000017487,207.60262889997102,208.58684710017405,208.58684710017405,208.58684710017405,208.58684710017405,208.60389440017752,209.58711250009947,209.82067360007204,s,0,0.22470139991492033,None,,,,,,,,,,,,,,,304747,001,2024-11-26_16h28.03.313,PRIYANSHI.AU2220101_solo.project,2024.1.5,None,2024-11-26 16h28.11.365439 +0530,
-50,a,,,13,0,65,0,,,,,209.83658730005845,,209.821822399972,209.83658730005845,210.83775180019438,210.83775180019438,210.83775180019438,210.83775180019438,210.83775180019438,211.83586760004982,213.77081260015257,f,0,1.9201680000405759,None,,,,,,,,,,,,,,,304747,001,2024-11-26_16h28.03.313,PRIYANSHI.AU2220101_solo.project,2024.1.5,None,2024-11-26 16h28.11.365439 +0530,
-150,s,,,13,1,66,1,,,,,213.7865683999844,,213.77130899997428,213.7865683999844,214.7698304001242,214.7698304001242,214.7698304001242,214.7698304001242,214.78707870002836,215.7698767001275,215.8037507000845,g,0,0.02898439997807145,None,,,,,,,,,,,,,,,304747,001,2024-11-26_16h28.03.313,PRIYANSHI.AU2220101_solo.project,2024.1.5,None,2024-11-26 16h28.11.365439 +0530,
50,d,,,13,2,67,2,,,,,215.819071700098,,215.8042208000552,215.819071700098,216.80417710007168,216.80417710007168,216.80417710007168,216.80417710007168,216.82048140000552,217.80317279999144,219.80427920003422,d,1,1.9947601999156177,None,,,,,,,,,,,,,,,304747,001,2024-11-26_16h28.03.313,PRIYANSHI.AU2220101_solo.project,2024.1.5,None,2024-11-26 16h28.11.365439 +0530,
150,f,,,13,3,68,3,,,,,219.81897740019485,,219.80496600014158,219.81897740019485,220.803433699999,220.803433699999,220.803433699999,220.803433699999,220.82139150006697,221.82009890000336,224.0051122000441,a,0,2.1794455000199378,None,,,,,,,,,,,,,,,304747,001,2024-11-26_16h28.03.313,PRIYANSHI.AU2220101_solo.project,2024.1.5,None,2024-11-26 16h28.11.365439 +0530,
60,g,,,13,4,69,4,,,,,224.0193688001018,,224.00574280018918,224.0193688001018,225.02035730006173,225.02035730006173,225.02035730006173,225.02035730006173,225.02035730006173,226.02085010008886,226.620751200011,a,0,0.5932814001571387,None,,,,,,,,,,,,,,,304747,001,2024-11-26_16h28.03.313,PRIYANSHI.AU2220101_solo.project,2024.1.5,None,2024-11-26 16h28.11.365439 +0530,
-50,a,,,14,0,70,0,,,,,226.63611980015412,,226.6212927000597,226.63611980015412,227.636578500038,227.636578500038,227.636578500038,227.636578500038,227.636578500038,228.63679530005902,230.15312550007366,f,0,1.5060797999612987,None,,,,,,,,,,,,,,,304747,001,2024-11-26_16h28.03.313,PRIYANSHI.AU2220101_solo.project,2024.1.5,None,2024-11-26 16h28.11.365439 +0530,
-150,s,,,14,1,71,1,,,,,230.1684191999957,,230.1535805000458,230.1684191999957,231.15252950019203,231.15252950019203,231.15252950019203,231.15252950019203,231.17034030007198,232.17076760018244,232.9059878999833,s,1,0.7289225999265909,None,,,,,,,,,,,,,,,304747,001,2024-11-26_16h28.03.313,PRIYANSHI.AU2220101_solo.project,2024.1.5,None,2024-11-26 16h28.11.365439 +0530,
50,d,,,14,2,72,2,,,,,232.91933230008,,232.9067468000576,232.91933230008,233.9197158999741,233.9197158999741,233.9197158999741,233.9197158999741,233.9197158999741,234.9194130001124,235.4201348000206,f,0,0.4862703001126647,None,,,,,,,,,,,,,,,304747,001,2024-11-26_16h28.03.313,PRIYANSHI.AU2220101_solo.project,2024.1.5,None,2024-11-26 16h28.11.365439 +0530,
150,f,,,14,3,73,3,,,,,235.4352337999735,,235.4214906000998,235.4352337999735,236.42044530017301,236.42044530017301,236.42044530017301,236.42044530017301,236.43663580017164,237.43624860001728,240.0867786000017,f,1,2.6408154000528157,None,,,,,,,,,,,,,,,304747,001,2024-11-26_16h28.03.313,PRIYANSHI.AU2220101_solo.project,2024.1.5,None,2024-11-26 16h28.11.365439 +0530,
60,g,,,14,4,74,4,,,,,240.10139010008425,,240.08831320004538,240.10139010008425,241.08666530018672,241.08666530018672,241.08666530018672,241.08666530018672,241.1039410000667,242.1037201001309,242.1202922000084,d,0,0.003154199803248048,None,,,,,,,,,,,,,,,304747,001,2024-11-26_16h28.03.313,PRIYANSHI.AU2220101_solo.project,2024.1.5,None,2024-11-26 16h28.11.365439 +0530,
-50,a,,,15,0,75,0,,,,,242.1360528001096,,242.1207401000429,242.1360528001096,243.11950500006787,243.11950500006787,243.11950500006787,243.11950500006787,243.13631150010042,244.12015040009283,244.25374730001204,s,0,0.1219675000756979,None,,,,,,,,,,,,,,,304747,001,2024-11-26_16h28.03.313,PRIYANSHI.AU2220101_solo.project,2024.1.5,None,2024-11-26 16h28.11.365439 +0530,
-150,s,,,15,1,76,1,,,,,244.26915309997275,,244.25501940003596,244.26915309997275,245.2704575001262,245.2704575001262,245.2704575001262,245.2704575001262,245.2704575001262,246.26804170012474,248.16918039997108,f,0,1.890734599903226,None,,,,,,,,,,,,,,,304747,001,2024-11-26_16h28.03.313,PRIYANSHI.AU2220101_solo.project,2024.1.5,None,2024-11-26 16h28.11.365439 +0530,
50,d,,,15,2,77,2,,,,,248.18473520013504,,248.16963150002994,248.18473520013504,249.16928220004775,249.16928220004775,249.16928220004775,249.16928220004775,249.18673490011133,250.1852590001654,251.83657940011472,a,0,1.6443285001441836,None,,,,,,,,,,,,,,,304747,001,2024-11-26_16h28.03.313,PRIYANSHI.AU2220101_solo.project,2024.1.5,None,2024-11-26 16h28.11.365439 +0530,
150,f,,,15,3,78,3,,,,,251.85144920018502,,251.83725690003484,251.85144920018502,252.83667160011828,252.83667160011828,252.83667160011828,252.83667160011828,252.85272030020133,253.8523850000929,255.71933330013417,s,0,1.8595347998198122,None,,,,,,,,,,,,,,,304747,001,2024-11-26_16h28.03.313,PRIYANSHI.AU2220101_solo.project,2024.1.5,None,2024-11-26 16h28.11.365439 +0530,
60,g,,,15,4,79,4,,,,,255.73466280009598,,255.71993710007519,255.73466280009598,256.7189358000178,256.7189358000178,256.7189358000178,256.7189358000178,256.73592030000873,257.7360497000627,259.72113580000587,h,0,1.9801938000600785,None,,,,,,,,,,,,,,,304747,001,2024-11-26_16h28.03.313,PRIYANSHI.AU2220101_solo.project,2024.1.5,None,2024-11-26 16h28.11.365439 +0530,
-50,a,,,16,0,80,0,,,,,259.7345363001805,,259.7216049002018,259.7345363001805,260.7367054000497,260.7367054000497,260.7367054000497,260.7367054000497,260.7367054000497,261.73514850018546,264.4195356001146,g,0,2.6703926001209766,None,,,,,,,,,,,,,,,304747,001,2024-11-26_16h28.03.313,PRIYANSHI.AU2220101_solo.project,2024.1.5,None,2024-11-26 16h28.11.365439 +0530,
-150,s,,,16,1,81,1,,,,,264.4355252000969,,264.42006000014953,264.4355252000969,265.41893400019035,265.41893400019035,265.41893400019035,265.41893400019035,265.4357416999992,266.4344903000165,266.73572730016895,f,0,0.2971200000029057,None,,,,,,,,,,,,,,,304747,001,2024-11-26_16h28.03.313,PRIYANSHI.AU2220101_solo.project,2024.1.5,None,2024-11-26 16h28.11.365439 +0530,
50,d,,,16,2,82,2,,,,,266.7510570001323,,266.736370800063,266.7510570001323,267.7356948000379,267.7356948000379,267.7356948000379,267.7356948000379,267.7510906001553,268.7351579000242,271.81763230008073,s,0,3.078547100070864,None,,,,,,,,,,,,,,,304747,001,2024-11-26_16h28.03.313,PRIYANSHI.AU2220101_solo.project,2024.1.5,None,2024-11-26 16h28.11.365439 +0530,
150,f,,,16,3,83,3,,,,,271.83241900010034,,271.8185270000249,271.83241900010034,272.83319230005145,272.83319230005145,272.83319230005145,272.83319230005145,272.83319230005145,273.833149000071,274.01848820014857,d,0,0.17182080005295575,None,,,,,,,,,,,,,,,304747,001,2024-11-26_16h28.03.313,PRIYANSHI.AU2220101_solo.project,2024.1.5,None,2024-11-26 16h28.11.365439 +0530,
60,g,,,16,4,84,4,,,,,274.03297220007516,,274.0197240000125,274.03297220007516,275.03275310015306,275.03275310015306,275.03275310015306,275.03275310015306,275.03275310015306,276.0322850001976,276.166539600119,a,0,0.12989300000481308,None,,,,,,,,,,,,,,,304747,001,2024-11-26_16h28.03.313,PRIYANSHI.AU2220101_solo.project,2024.1.5,None,2024-11-26 16h28.11.365439 +0530,
-50,a,,,17,0,85,0,,,,,276.1822818000801,,276.1671732000541,276.1822818000801,277.16604940011166,277.16604940011166,277.16604940011166,277.16604940011166,277.18286050017923,278.16552160005085,278.43390950001776,a,1,0.25046540005132556,None,,,,,,,,,,,,,,,304747,001,2024-11-26_16h28.03.313,PRIYANSHI.AU2220101_solo.project,2024.1.5,None,2024-11-26 16h28.11.365439 +0530,
-150,s,,,17,1,86,1,,,,,278.4489101001527,,278.434818000067,278.4489101001527,279.44904560013674,279.44904560013674,279.44904560013674,279.44904560013674,279.44904560013674,280.44955860008486,281.2337997001596,s,1,0.7814513999037445,None,,,,,,,,,,,,,,,304747,001,2024-11-26_16h28.03.313,PRIYANSHI.AU2220101_solo.project,2024.1.5,None,2024-11-26 16h28.11.365439 +0530,
50,d,,,17,2,87,2,,,,,281.24925640015863,,281.23437459999695,281.24925640015863,282.24879240011796,282.24879240011796,282.24879240011796,282.24879240011796,282.24879240011796,283.24903870001435,284.5180762000382,a,0,1.2672546999529004,None,,,,,,,,,,,,,,,304747,001,2024-11-26_16h28.03.313,PRIYANSHI.AU2220101_solo.project,2024.1.5,None,2024-11-26 16h28.11.365439 +0530,
150,f,,,17,3,88,3,,,,,284.53264340013266,,284.5186625001952,284.53264340013266,285.5327556000557,285.5327556000557,285.5327556000557,285.5327556000557,285.5327556000557,286.53217720007524,286.9003632001113,s,0,0.35765379993245006,None,,,,,,,,,,,,,,,304747,001,2024-11-26_16h28.03.313,PRIYANSHI.AU2220101_solo.project,2024.1.5,None,2024-11-26 16h28.11.365439 +0530,
60,g,,,17,4,89,4,,,,,286.91589440009557,,286.9010072001256,286.91589440009557,287.9159898001235,287.9159898001235,287.9159898001235,287.9159898001235,287.9159898001235,288.91596530005336,290.9161067001987,f,0,1.9846098001580685,None,,,,,,,,,,,,,,,304747,001,2024-11-26_16h28.03.313,PRIYANSHI.AU2220101_solo.project,2024.1.5,None,2024-11-26 16h28.11.365439 +0530,
-50,a,,,18,0,90,0,,,,,290.9319017000962,,290.9166443001013,290.9319017000962,291.93195590004325,291.93195590004325,291.93195590004325,291.93195590004325,291.93195590004325,292.91574540012516,293.0005042999983,a,1,0.07164010009728372,None,,,,,,,,,,,,,,,304747,001,2024-11-26_16h28.03.313,PRIYANSHI.AU2220101_solo.project,2024.1.5,None,2024-11-26 16h28.11.365439 +0530,
-150,s,,,18,1,91,1,,,,,293.01564090000466,,293.00126640009694,293.01564090000466,294.0158732000273,294.0158732000273,294.0158732000273,294.0158732000273,294.0158732000273,295.0150172000285,296.199701000005,s,1,1.1715610001701862,None,,,,,,,,,,,,,,,304747,001,2024-11-26_16h28.03.313,PRIYANSHI.AU2220101_solo.project,2024.1.5,None,2024-11-26 16h28.11.365439 +0530,
50,d,,,18,2,92,2,,,,,296.2152238001581,,296.20044010016136,296.2152238001581,297.2157948000822,297.2157948000822,297.2157948000822,297.2157948000822,297.2157948000822,298.21557090012357,299.9500597000588,d,1,1.721091300016269,None,,,,,,,,,,,,,,,304747,001,2024-11-26_16h28.03.313,PRIYANSHI.AU2220101_solo.project,2024.1.5,None,2024-11-26 16h28.11.365439 +0530,
150,f,,,18,3,93,3,,,,,299.9650365000125,,299.95092700002715,299.9650365000125,300.96567329997197,300.96567329997197,300.96567329997197,300.96567329997197,300.96567329997197,301.9653866000008,303.150219600182,f,1,1.182089100126177,None,,,,,,,,,,,,,,,304747,001,2024-11-26_16h28.03.313,PRIYANSHI.AU2220101_solo.project,2024.1.5,None,2024-11-26 16h28.11.365439 +0530,
60,g,,,18,4,94,4,,,,,303.1648062001914,,303.15100680012256,303.1648062001914,304.164865600178,304.164865600178,304.164865600178,304.164865600178,304.164865600178,305.165533100022,305.2831680001691,g,1,0.10892400005832314,None,,,,,,,,,,,,,,,304747,001,2024-11-26_16h28.03.313,PRIYANSHI.AU2220101_solo.project,2024.1.5,None,2024-11-26 16h28.11.365439 +0530,
-50,a,,,19,0,95,0,,,,,305.298566600075,,305.2836872001644,305.298566600075,306.2988056000322,306.2988056000322,306.2988056000322,306.2988056000322,306.2988056000322,307.2982308000792,308.8666942000855,f,0,1.5601188000291586,None,,,,,,,,,,,,,,,304747,001,2024-11-26_16h28.03.313,PRIYANSHI.AU2220101_solo.project,2024.1.5,None,2024-11-26 16h28.11.365439 +0530,
-150,s,,,19,1,96,1,,,,,308.88192569999956,,308.86728410003707,308.88192569999956,309.8819316001609,309.8819316001609,309.8819316001609,309.8819316001609,309.8819316001609,310.8812905000523,311.13258530013263,g,0,0.2380295000039041,None,,,,,,,,,,,,,,,304747,001,2024-11-26_16h28.03.313,PRIYANSHI.AU2220101_solo.project,2024.1.5,None,2024-11-26 16h28.11.365439 +0530,
50,d,,,19,2,97,2,,,,,311.1480572000146,,311.1332094001118,311.1480572000146,312.14801420015283,312.14801420015283,312.14801420015283,312.14801420015283,312.14801420015283,313.14850180014037,314.4161650000606,g,0,1.2543750999029726,None,,,,,,,,,,,,,,,304747,001,2024-11-26_16h28.03.313,PRIYANSHI.AU2220101_solo.project,2024.1.5,None,2024-11-26 16h28.11.365439 +0530,
150,f,,,19,3,98,3,,,,,314.431291700108,,314.4170992001891,314.431291700108,315.43131820019335,315.43131820019335,315.43131820019335,315.43131820019335,315.43131820019335,316.4318503001705,318.5346350001637,d,0,2.0999894998967648,None,,,,,,,,,,,,,,,304747,001,2024-11-26_16h28.03.313,PRIYANSHI.AU2220101_solo.project,2024.1.5,None,2024-11-26 16h28.11.365439 +0530,
60,g,,,19,4,99,4,,,,,318.54790980019607,,318.53558870009147,318.54790980019607,319.54823500011116,319.54823500011116,319.54823500011116,319.54823500011116,319.54823500011116,320.54812679998577,320.69920730008744,s,0,0.14361220016144216,None,,,,,,,,,,,,,,,304747,001,2024-11-26_16h28.03.313,PRIYANSHI.AU2220101_solo.project,2024.1.5,None,2024-11-26 16h28.11.365439 +0530,
,,-150,z,,,,,0,0,0,0,320.7182923001237,,,,,,,,,,,,,,,320.71473370003514,320.7182923001237,321.7152065001428,321.7152065001428,321.7152065001428,321.7152065001428,321.7152065001428,321.73165359999985,322.7145770001225,324.6163973000366,a,0,1.8891080999746919,None,304747,001,2024-11-26_16h28.03.313,PRIYANSHI.AU2220101_solo.project,2024.1.5,None,2024-11-26 16h28.11.365439 +0530,
,,60,v,,,,,0,1,1,3,324.6314125000499,,,,,,,,,,,,,,,324.6174380001612,324.6314125000499,325.6319681000896,325.6319681000896,325.6319681000896,325.6319681000896,325.6319681000896,325.6319681000896,326.63103010016493,326.6985743001569,s,0,0.06141540012322366,None,304747,001,2024-11-26_16h28.03.313,PRIYANSHI.AU2220101_solo.project,2024.1.5,None,2024-11-26 16h28.11.365439 +0530,
,,-150,z,,,,,0,2,2,0,326.7140595000237,,,,,,,,,,,,,,,326.69909810018726,326.7140595000237,327.71434659999795,327.71434659999795,327.71434659999795,327.71434659999795,327.71434659999795,327.71434659999795,328.69806160009466,331.5825090999715,s,0,2.873007700080052,None,304747,001,2024-11-26_16h28.03.313,PRIYANSHI.AU2220101_solo.project,2024.1.5,None,2024-11-26 16h28.11.365439 +0530,
,,50,c,,,,,0,3,3,2,331.59744560020044,,,,,,,,,,,,,,,331.5835483002011,331.59744560020044,332.5977539999876,332.5977539999876,332.5977539999876,332.5977539999876,332.5977539999876,332.5977539999876,333.59817180014215,334.2998157001566,d,0,0.6896701999939978,None,304747,001,2024-11-26_16h28.03.313,PRIYANSHI.AU2220101_solo.project,2024.1.5,None,2024-11-26 16h28.11.365439 +0530,
,,-50,x,,,,,0,4,4,1,334.31454659998417,,,,,,,,,,,,,,,334.3006983001251,334.31454659998417,335.3144688999746,335.3144688999746,335.3144688999746,335.3144688999746,335.3144688999746,335.3144688999746,336.31413610000163,336.5652495000977,f,0,0.23547370010055602,None,304747,001,2024-11-26_16h28.03.313,PRIYANSHI.AU2220101_solo.project,2024.1.5,None,2024-11-26 16h28.11.365439 +0530,
,,150,b,,,,,1,0,5,4,336.5811974001117,,,,,,,,,,,,,,,336.5657879000064,336.5811974001117,337.56471800012514,337.56471800012514,337.56471800012514,337.56471800012514,337.56471800012514,337.5812305000145,338.58044650009833,339.21486000018194,z,0,0.6280756997875869,None,304747,001,2024-11-26_16h28.03.313,PRIYANSHI.AU2220101_solo.project,2024.1.5,None,2024-11-26 16h28.11.365439 +0530,
,,-150,z,,,,,1,1,6,0,339.23053720011376,,,,,,,,,,,,,,,339.21530860010535,339.23053720011376,340.2144500000868,340.2144500000868,340.2144500000868,340.2144500000868,340.2144500000868,340.230893000029,341.21444080001675,343.96584490011446,x,0,2.737576700048521,None,304747,001,2024-11-26_16h28.03.313,PRIYANSHI.AU2220101_solo.project,2024.1.5,None,2024-11-26 16h28.11.365439 +0530,
,,-50,x,,,,,1,2,7,1,343.9805632000789,,,,,,,,,,,,,,,343.9668310000561,343.9805632000789,344.98126270016655,344.98126270016655,344.98126270016655,344.98126270016655,344.98126270016655,344.98126270016655,345.98112560017034,347.5656942999922,c,0,1.5797347000334412,None,304747,001,2024-11-26_16h28.03.313,PRIYANSHI.AU2220101_solo.project,2024.1.5,None,2024-11-26 16h28.11.365439 +0530,
,,-150,z,,,,,1,3,8,0,347.58049380010925,,,,,,,,,,,,,,,347.56669280002825,347.58049380010925,348.58080009999685,348.58080009999685,348.58080009999685,348.58080009999685,348.58080009999685,348.58080009999685,349.58096719998866,349.6655031000264,v,0,0.07936199987307191,None,304747,001,2024-11-26_16h28.03.313,PRIYANSHI.AU2220101_solo.project,2024.1.5,None,2024-11-26 16h28.11.365439 +0530,
,,50,c,,,,,1,4,9,2,349.68089000019245,,,,,,,,,,,,,,,349.66602330002934,349.68089000019245,350.6803688001819,350.6803688001819,350.6803688001819,350.6803688001819,350.6803688001819,350.6803688001819,351.6805450001266,351.74781500012614,b,0,0.06157929985783994,None,304747,001,2024-11-26_16h28.03.313,PRIYANSHI.AU2220101_solo.project,2024.1.5,None,2024-11-26 16h28.11.365439 +0530,
,,-50,x,,,,,2,0,10,1,351.7635369000491,,,,,,,,,,,,,,,351.7483494000044,351.7635369000491,352.7477510001045,352.7477510001045,352.7477510001045,352.7477510001045,352.7477510001045,352.76425830018707,353.74760490003973,353.8503368999809,z,0,0.10061340010724962,None,304747,001,2024-11-26_16h28.03.313,PRIYANSHI.AU2220101_solo.project,2024.1.5,None,2024-11-26 16h28.11.365439 +0530,
,,60,v,,,,,2,1,11,3,353.8641501001548,,,,,,,,,,,,,,,353.85128500009887,353.8641501001548,354.86386690009385,354.86386690009385,354.86386690009385,354.86386690009385,354.86386690009385,354.86386690009385,355.8635158999823,357.2818156001158,x,0,1.4098507999442518,None,304747,001,2024-11-26_16h28.03.313,PRIYANSHI.AU2220101_solo.project,2024.1.5,None,2024-11-26 16h28.11.365439 +0530,
,,60,v,,,,,2,2,12,3,357.2971681000199,,,,,,,,,,,,,,,357.28236910002306,357.2971681000199,358.2975669000298,358.2975669000298,358.2975669000298,358.2975669000298,358.2975669000298,358.2975669000298,359.2969818999991,359.580733000068,c,0,None,None,304747,001,2024-11-26_16h28.03.313,PRIYANSHI.AU2220101_solo.project,2024.1.5,None,2024-11-26 16h28.11.365439 +0530,
,,60,v,,,,,2,3,13,3,359.5968137001619,,,,,,,,,,,,,,,359.5813747001812,359.5968137001619,360.5971125001088,360.5971125001088,360.5971125001088,360.5971125001088,360.5971125001088,360.5971125001088,361.5808168000076,362.06479920004494,v,0,0.4800433001946658,None,304747,001,2024-11-26_16h28.03.313,PRIYANSHI.AU2220101_solo.project,2024.1.5,None,2024-11-26 16h28.11.365439 +0530,
,,150,b,,,,,2,4,14,4,362.0805617000442,,,,,,,,,,,,,,,362.06536480016075,362.0805617000442,363.0799887001049,363.0799887001049,363.0799887001049,363.0799887001049,363.0799887001049,363.0799887001049,364.0799935001414,364.18090960010886,b,0,0.0934737001080066,None,304747,001,2024-11-26_16h28.03.313,PRIYANSHI.AU2220101_solo.project,2024.1.5,None,2024-11-26 16h28.11.365439 +0530,
,,50,c,,,,,3,0,15,2,364.19678710005246,,,,,,,,,,,,,,,364.1814368001651,364.19678710005246,365.18038769997656,365.18038769997656,365.18038769997656,365.18038769997656,365.18038769997656,365.197133500129,366.1803506000433,366.61521590012126,c,0,0.42836000001989305,None,304747,001,2024-11-26_16h28.03.313,PRIYANSHI.AU2220101_solo.project,2024.1.5,None,2024-11-26 16h28.11.365439 +0530,
,,-150,z,,,,,3,1,16,0,366.6297603000421,,,,,,,,,,,,,,,366.61619259999134,366.6297603000421,367.6300952001475,367.6300952001475,367.6300952001475,367.6300952001475,367.6300952001475,367.6300952001475,368.63012220012024,368.93209150014445,x,0,0.2985925998073071,None,304747,001,2024-11-26_16h28.03.313,PRIYANSHI.AU2220101_solo.project,2024.1.5,None,2024-11-26 16h28.11.365439 +0530,
,,50,c,,,,,3,2,17,2,368.94712370005436,,,,,,,,,,,,,,,368.93283710000105,368.94712370005436,369.94709580019116,369.94709580019116,369.94709580019116,369.94709580019116,369.94709580019116,369.94709580019116,370.9464356000535,372.88171280012466,x,0,1.9322132000233978,None,304747,001,2024-11-26_16h28.03.313,PRIYANSHI.AU2220101_solo.project,2024.1.5,None,2024-11-26 16h28.11.365439 +0530,
,,50,c,,,,,3,3,18,2,372.89690729998983,,,,,,,,,,,,,,,372.8822868000716,372.89690729998983,373.8971049000975,373.8971049000975,373.8971049000975,373.8971049000975,373.8971049000975,373.8971049000975,374.8964886001777,375.18061719997786,c,0,0.26923689991235733,None,304747,001,2024-11-26_16h28.03.313,PRIYANSHI.AU2220101_solo.project,2024.1.5,None,2024-11-26 16h28.11.365439 +0530,
,,50,c,,,,,3,4,19,2,375.1962624001317,,,,,,,,,,,,,,,375.1811573000159,375.1962624001317,376.1967591000721,376.1967591000721,376.1967591000721,376.1967591000721,376.1967591000721,376.1967591000721,377.18033390003256,377.43115169997327,v,0,None,None,304747,001,2024-11-26_16h28.03.313,PRIYANSHI.AU2220101_solo.project,2024.1.5,None,2024-11-26 16h28.11.365439 +0530,
,,60,v,,,,,4,0,20,3,377.44666550005786,,,,,,,,,,,,,,,377.4316557000857,377.44666550005786,378.44707230012864,378.44707230012864,378.44707230012864,378.44707230012864,378.44707230012864,378.44707230012864,379.4460533000529,379.4971346000675,z,0,0.04591879993677139,None,304747,001,2024-11-26_16h28.03.313,PRIYANSHI.AU2220101_solo.project,2024.1.5,None,2024-11-26 16h28.11.365439 +0530,
,,150,b,,,,,4,1,21,4,379.51278050011024,,,,,,,,,,,,,,,379.4976221001707,379.51278050011024,380.5130166001618,380.5130166001618,380.5130166001618,380.5130166001618,380.5130166001618,380.5130166001618,381.4969735001214,381.7642380001489,x,0,0.25936360005289316,None,304747,001,2024-11-26_16h28.03.313,PRIYANSHI.AU2220101_solo.project,2024.1.5,None,2024-11-26 16h28.11.365439 +0530,
,,-150,z,,,,,4,2,22,0,381.7800291001331,,,,,,,,,,,,,,,381.7647270001471,381.7800291001331,382.7799618002027,382.7799618002027,382.7799618002027,382.7799618002027,382.7799618002027,382.7799618002027,383.7795487002004,384.23218890000135,x,0,0.450375699903816,None,304747,001,2024-11-26_16h28.03.313,PRIYANSHI.AU2220101_solo.project,2024.1.5,None,2024-11-26 16h28.11.365439 +0530,
,,-150,z,,,,,4,3,23,0,384.2461233001668,,,,,,,,,,,,,,,384.23303960007615,384.2461233001668,385.2466306001879,385.2466306001879,385.2466306001879,385.2466306001879,385.2466306001879,385.2466306001879,386.24690140015446,387.03153729997575,x,0,0.7719390999991447,None,304747,001,2024-11-26_16h28.03.313,PRIYANSHI.AU2220101_solo.project,2024.1.5,None,2024-11-26 16h28.11.365439 +0530,
,,-50,x,,,,,4,4,24,1,387.0461242001038,,,,,,,,,,,,,,,387.0327850000467,387.0461242001038,388.04601150006056,388.04601150006056,388.04601150006056,388.04601150006056,388.04601150006056,388.04601150006056,389.0466518001631,389.4312883000821,x,0,0.37792319990694523,None,304747,001,2024-11-26_16h28.03.313,PRIYANSHI.AU2220101_solo.project,2024.1.5,None,2024-11-26 16h28.11.365439 +0530,
,,-150,z,,,,,5,0,25,0,389.4464144001249,,,,,,,,,,,,,,,389.4319813000038,389.4464144001249,390.4464903001208,390.4464903001208,390.4464903001208,390.4464903001208,390.4464903001208,390.4464903001208,391.4460048000328,393.71453990018927,v,0,2.2513061000499874,None,304747,001,2024-11-26_16h28.03.313,PRIYANSHI.AU2220101_solo.project,2024.1.5,None,2024-11-26 16h28.11.365439 +0530,
,,150,b,,,,,5,1,26,4,393.7297004000284,,,,,,,,,,,,,,,393.7154489001259,393.7297004000284,394.7291247001849,394.7291247001849,394.7291247001849,394.7291247001849,394.7291247001849,394.7291247001849,395.7291286000982,397.8638596001547,b,0,2.126325000077486,None,304747,001,2024-11-26_16h28.03.313,PRIYANSHI.AU2220101_solo.project,2024.1.5,None,2024-11-26 16h28.11.365439 +0530,
,,60,v,,,,,5,2,27,3,397.87955760001205,,,,,,,,,,,,,,,397.864354000194,397.87955760001205,398.8792670001276,398.8792670001276,398.8792670001276,398.8792670001276,398.8792670001276,398.8792670001276,399.87906530010514,400.31425380008295,v,0,0.42172019998542964,None,304747,001,2024-11-26_16h28.03.313,PRIYANSHI.AU2220101_solo.project,2024.1.5,None,2024-11-26 16h28.11.365439 +0530,
,,-50,x,,,,,5,3,28,1,400.32897540018894,,,,,,,,,,,,,,,400.3152120001614,400.32897540018894,401.3296046999749,401.3296046999749,401.3296046999749,401.3296046999749,401.3296046999749,401.3296046999749,402.32964240014553,402.6635161000304,z,0,0.32623400003649294,None,304747,001,2024-11-26_16h28.03.313,PRIYANSHI.AU2220101_solo.project,2024.1.5,None,2024-11-26 16h28.11.365439 +0530,
,,150,b,,,,,5,4,29,4,402.6789083001204,,,,,,,,,,,,,,,402.6641138000414,402.6789083001204,403.6790048000403,403.6790048000403,403.6790048000403,403.6790048000403,403.6790048000403,403.6790048000403,404.6791268000379,405.0637906000484,x,0,0.37937340000644326,None,304747,001,2024-11-26_16h28.03.313,PRIYANSHI.AU2220101_solo.project,2024.1.5,None,2024-11-26 16h28.11.365439 +0530,
,,60,v,,,,,6,0,30,3,405.07965259999037,,,,,,,,,,,,,,,405.0643319999799,405.07965259999037,406.0794904001523,406.0794904001523,406.0794904001523,406.0794904001523,406.0794904001523,406.0794904001523,407.07886720006354,407.27983050001785,c,0,0.1845090000424534,None,304747,001,2024-11-26_16h28.03.313,PRIYANSHI.AU2220101_solo.project,2024.1.5,None,2024-11-26 16h28.11.365439 +0530,
,,150,b,,,,,6,1,31,4,407.29538280004635,,,,,,,,,,,,,,,407.2803474001121,407.29538280004635,408.29565159999765,408.29565159999765,408.29565159999765,408.29565159999765,408.29565159999765,408.29565159999765,409.27948280004784,409.48026060010307,v,0,0.18941350001841784,None,304747,001,2024-11-26_16h28.03.313,PRIYANSHI.AU2220101_solo.project,2024.1.5,None,2024-11-26 16h28.11.365439 +0530,
,,150,b,,,,,6,2,32,4,409.4958588001318,,,,,,,,,,,,,,,409.48077320004813,409.4958588001318,410.4960915001575,410.4960915001575,410.4960915001575,410.4960915001575,410.4960915001575,410.4960915001575,411.4953370001167,411.64629050018266,b,0,0.13670690008439124,None,304747,001,2024-11-26_16h28.03.313,PRIYANSHI.AU2220101_solo.project,2024.1.5,None,2024-11-26 16h28.11.365439 +0530,
,,-50,x,,,,,6,3,33,1,411.66202750010416,,,,,,,,,,,,,,,411.6468891000841,411.66202750010416,412.6620346000418,412.6620346000418,412.6620346000418,412.6620346000418,412.6620346000418,412.6620346000418,413.645923800068,414.01475040009245,z,0,0.35707199992612004,None,304747,001,2024-11-26_16h28.03.313,PRIYANSHI.AU2220101_solo.project,2024.1.5,None,2024-11-26 16h28.11.365439 +0530,
,,-50,x,,,,,6,4,34,1,414.02921740012243,,,,,,,,,,,,,,,414.0159881999716,414.02921740012243,415.0288064000197,415.0288064000197,415.0288064000197,415.0288064000197,415.0288064000197,415.0288064000197,416.0286816000007,416.94695090013556,x,0,0.9080189999658614,None,304747,001,2024-11-26_16h28.03.313,PRIYANSHI.AU2220101_solo.project,2024.1.5,None,2024-11-26 16h28.11.365439 +0530,
,,50,c,,,,,7,0,35,2,416.9624842000194,,,,,,,,,,,,,,,416.947640000144,416.9624842000194,417.962696300121,417.962696300121,417.962696300121,417.962696300121,417.962696300121,417.962696300121,418.9621678001713,419.0803785000462,c,0,0.10506070009432733,None,304747,001,2024-11-26_16h28.03.313,PRIYANSHI.AU2220101_solo.project,2024.1.5,None,2024-11-26 16h28.11.365439 +0530,
,,50,c,,,,,7,1,36,2,419.09539950010367,,,,,,,,,,,,,,,419.0812957000453,419.09539950010367,420.09558070008643,420.09558070008643,420.09558070008643,420.09558070008643,420.09558070008643,420.09558070008643,421.0956827001646,422.94681250001304,v,0,1.842697799904272,None,304747,001,2024-11-26_16h28.03.313,PRIYANSHI.AU2220101_solo.project,2024.1.5,None,2024-11-26 16h28.11.365439 +0530,
,,60,v,,,,,7,2,37,3,422.9616514001973,,,,,,,,,,,,,,,422.94762570015155,422.9616514001973,423.9617952001281,423.9617952001281,423.9617952001281,423.9617952001281,423.9617952001281,423.9617952001281,424.9621254000813,425.1975317001343,b,0,0.23359699989669025,None,304747,001,2024-11-26_16h28.03.313,PRIYANSHI.AU2220101_solo.project,2024.1.5,None,2024-11-26 16h28.11.365439 +0530,
,,50,c,,,,,7,3,38,2,425.2121892001014,,,,,,,,,,,,,,,425.1981732000131,425.2121892001014,426.21242690016516,426.21242690016516,426.21242690016516,426.21242690016516,426.21242690016516,426.21242690016516,427.2116509000771,428.1291285001207,z,0,0.91444840002805,None,304747,001,2024-11-26_16h28.03.313,PRIYANSHI.AU2220101_solo.project,2024.1.5,None,2024-11-26 16h28.11.365439 +0530,
,,-50,x,,,,,7,4,39,1,428.1450744001195,,,,,,,,,,,,,,,428.1297206999734,428.1450744001195,429.12911930005066,429.12911930005066,429.12911930005066,429.12911930005066,429.12911930005066,429.1456697001122,430.128857600037,430.7801660001278,x,0,0.6495085000060499,None,304747,001,2024-11-26_16h28.03.313,PRIYANSHI.AU2220101_solo.project,2024.1.5,None,2024-11-26 16h28.11.365439 +0530,
,,60,v,,,,,8,0,40,3,430.7948966000695,,,,,,,,,,,,,,,430.78073710016906,430.7948966000695,431.7948150001466,431.7948150001466,431.7948150001466,431.7948150001466,431.7948150001466,431.7948150001466,432.7956483999733,433.39677510014735,c,0,0.5886953000444919,None,304747,001,2024-11-26_16h28.03.313,PRIYANSHI.AU2220101_solo.project,2024.1.5,None,2024-11-26 16h28.11.365439 +0530,
,,50,c,,,,,8,1,41,2,433.4121787000913,,,,,,,,,,,,,,,433.39755470003,433.4121787000913,434.41212059999816,434.41212059999816,434.41212059999816,434.41212059999816,434.41212059999816,434.41212059999816,435.4114443999715,435.71239840006456,v,0,0.2951684999279678,None,304747,001,2024-11-26_16h28.03.313,PRIYANSHI.AU2220101_solo.project,2024.1.5,None,2024-11-26 16h28.11.365439 +0530,
,,-50,x,,,,,8,2,42,1,435.7281565000303,,,,,,,,,,,,,,,435.7129242999945,435.7281565000303,436.72830409999005,436.72830409999005,436.72830409999005,436.72830409999005,436.72830409999005,436.72830409999005,437.7120472001843,437.93035980011337,c,0,0.2025045999325812,None,304747,001,2024-11-26_16h28.03.313,PRIYANSHI.AU2220101_solo.project,2024.1.5,None,2024-11-26 16h28.11.365439 +0530,
,,-150,z,,,,,8,3,43,0,437.94518220005557,,,,,,,,,,,,,,,437.93132279999554,437.94518220005557,438.9446884000208,438.9446884000208,438.9446884000208,438.9446884000208,438.9446884000208,438.9446884000208,439.9446587001439,441.7462030001916,z,0,1.7970475000329316,None,304747,001,2024-11-26_16h28.03.313,PRIYANSHI.AU2220101_solo.project,2024.1.5,None,2024-11-26 16h28.11.365439 +0530,
,,150,b,,,,,8,4,44,4,441.761764400173,,,,,,,,,,,,,,,441.7467466001399,441.761764400173,442.7612221001182,442.7612221001182,442.7612221001182,442.7612221001182,442.7612221001182,442.7612221001182,443.76157690002583,445.97944340016693,c,0,2.2132256999611855,None,304747,001,2024-11-26_16h28.03.313,PRIYANSHI.AU2220101_solo.project,2024.1.5,None,2024-11-26 16h28.11.365439 +0530,
,,-50,x,,,,,9,0,45,1,445.9948231000453,,,,,,,,,,,,,,,445.979974700138,445.9948231000453,446.9943812000565,446.9943812000565,446.9943812000565,446.9943812000565,446.9943812000565,446.9943812000565,447.9947014001664,448.94694539997727,x,0,0.9440937999170274,None,304747,001,2024-11-26_16h28.03.313,PRIYANSHI.AU2220101_solo.project,2024.1.5,None,2024-11-26 16h28.11.365439 +0530,
,,50,c,,,,,9,1,46,2,448.9616543999873,,,,,,,,,,,,,,,448.94791260012425,448.9616543999873,449.96156350011006,449.96156350011006,449.96156350011006,449.96156350011006,449.96156350011006,449.96156350011006,450.9610892999917,451.0454114000313,z,0,0.07410930003970861,None,304747,001,2024-11-26_16h28.03.313,PRIYANSHI.AU2220101_solo.project,2024.1.5,None,2024-11-26 16h28.11.365439 +0530,
,,150,b,,,,,9,2,47,4,451.06090540019795,,,,,,,,,,,,,,,451.0460062001366,451.06090540019795,452.0610436000861,452.0610436000861,452.0610436000861,452.0610436000861,452.0610436000861,452.0610436000861,453.04488250007853,453.8960539000109,v,0,0.8387386999092996,None,304747,001,2024-11-26_16h28.03.313,PRIYANSHI.AU2220101_solo.project,2024.1.5,None,2024-11-26 16h28.11.365439 +0530,
,,150,b,,,,,9,3,48,4,453.9113456001505,,,,,,,,,,,,,,,453.8967049000785,453.9113456001505,454.9110719000455,454.9110719000455,454.9110719000455,454.9110719000455,454.9110719000455,454.9110719000455,455.9112967001274,457.1803237001877,c,0,1.26660309988074,None,304747,001,2024-11-26_16h28.03.313,PRIYANSHI.AU2220101_solo.project,2024.1.5,None,2024-11-26 16h28.11.365439 +0530,
,,-50,x,,,,,9,4,49,1,457.1947038001381,,,,,,,,,,,,,,,457.18111120001413,457.1947038001381,458.19481969997287,458.19481969997287,458.19481969997287,458.19481969997287,458.19481969997287,458.19481969997287,459.1941945999861,461.4624995000195,b,0,2.2558309000451118,None,304747,001,2024-11-26_16h28.03.313,PRIYANSHI.AU2220101_solo.project,2024.1.5,None,2024-11-26 16h28.11.365439 +0530,
,,-50,x,,,,,10,0,50,1,461.47787620010786,,,,,,,,,,,,,,,461.463199299993,461.47787620010786,462.4779527001083,462.4779527001083,462.4779527001083,462.4779527001083,462.4779527001083,462.4779527001083,463.47808080003597,464.11294280015863,z,0,0.6332068000920117,None,304747,001,2024-11-26_16h28.03.313,PRIYANSHI.AU2220101_solo.project,2024.1.5,None,2024-11-26 16h28.11.365439 +0530,
,,-50,x,,,,,10,1,51,1,464.12788569997065,,,,,,,,,,,,,,,464.1134530000854,464.12788569997065,465.12775900005363,465.12775900005363,465.12775900005363,465.12775900005363,465.12775900005363,465.12775900005363,466.12782800011337,467.3456261001993,b,0,1.2125750000122935,None,304747,001,2024-11-26_16h28.03.313,PRIYANSHI.AU2220101_solo.project,2024.1.5,None,2024-11-26 16h28.11.365439 +0530,
,,60,v,,,,,10,2,52,3,467.36082870000973,,,,,,,,,,,,,,,467.3464415001217,467.36082870000973,468.3606751000043,468.3606751000043,468.3606751000043,468.3606751000043,468.3606751000043,468.3606751000043,469.3612811001949,469.41279390011914,v,0,0.04939070018008351,None,304747,001,2024-11-26_16h28.03.313,PRIYANSHI.AU2220101_solo.project,2024.1.5,None,2024-11-26 16h28.11.365439 +0530,
,,50,c,,,,,10,3,53,2,469.427742900094,,,,,,,,,,,,,,,469.41357320011593,469.427742900094,470.4279823000543,470.4279823000543,470.4279823000543,470.4279823000543,470.4279823000543,470.4279823000543,471.4272988999728,471.44500710000284,v,0,0.012138900114223361,None,304747,001,2024-11-26_16h28.03.313,PRIYANSHI.AU2220101_solo.project,2024.1.5,None,2024-11-26 16h28.11.365439 +0530,
,,50,c,,,,,10,4,54,2,471.46047640009783,,,,,,,,,,,,,,,471.44558980013244,471.46047640009783,472.46045979997143,472.46045979997143,472.46045979997143,472.46045979997143,472.46045979997143,472.46045979997143,473.4609911001753,474.2118037000764,b,0,0.7408089998643845,None,304747,001,2024-11-26_16h28.03.313,PRIYANSHI.AU2220101_solo.project,2024.1.5,None,2024-11-26 16h28.11.365439 +0530,
,,60,v,,,,,11,0,55,3,474.2276135000866,,,,,,,,,,,,,,,474.21239690016955,474.2276135000866,475.22712590009905,475.22712590009905,475.22712590009905,475.22712590009905,475.22712590009905,475.22712590009905,476.22699190001003,477.7621809002012,x,0,1.5294106998480856,None,304747,001,2024-11-26_16h28.03.313,PRIYANSHI.AU2220101_solo.project,2024.1.5,None,2024-11-26 16h28.11.365439 +0530,
,,-150,z,,,,,11,1,56,0,477.7773786999751,,,,,,,,,,,,,,,477.76275670016184,477.7773786999751,478.77687260019593,478.77687260019593,478.77687260019593,478.77687260019593,478.77687260019593,478.77687260019593,479.77689400012605,480.177674600156,c,0,0.3892138001974672,None,304747,001,2024-11-26_16h28.03.313,PRIYANSHI.AU2220101_solo.project,2024.1.5,None,2024-11-26 16h28.11.365439 +0530,
,,-150,z,,,,,11,2,57,0,480.19340150011703,,,,,,,,,,,,,,,480.17823490011506,480.19340150011703,481.1776205999777,481.1776205999777,481.1776205999777,481.1776205999777,481.1776205999777,481.19418620015495,482.17746420018375,483.3443909001071,z,0,1.1593607999384403,None,304747,001,2024-11-26_16h28.03.313,PRIYANSHI.AU2220101_solo.project,2024.1.5,None,2024-11-26 16h28.11.365439 +0530,
,,150,b,,,,,11,3,58,4,483.3602095001843,,,,,,,,,,,,,,,483.34491310012527,483.3602095001843,484.3603535001166,484.3603535001166,484.3603535001166,484.3603535001166,484.3603535001166,484.3603535001166,485.3441891002003,485.4794797000941,x,0,0.1274464000016451,None,304747,001,2024-11-26_16h28.03.313,PRIYANSHI.AU2220101_solo.project,2024.1.5,None,2024-11-26 16h28.11.365439 +0530,
,,150,b,,,,,11,4,59,4,485.4940557000227,,,,,,,,,,,,,,,485.4807920001913,485.4940557000227,486.4941073001828,486.4941073001828,486.4941073001828,486.4941073001828,486.4941073001828,486.4941073001828,487.49338140012696,487.6775567000732,c,0,0.16868380014784634,None,304747,001,2024-11-26_16h28.03.313,PRIYANSHI.AU2220101_solo.project,2024.1.5,None,2024-11-26 16h28.11.365439 +0530,
,,-150,z,,,,,12,0,60,0,487.69323040009476,,,,,,,,,,,,,,,487.67814360000193,487.69323040009476,488.67680910020135,488.67680910020135,488.67680910020135,488.67680910020135,488.67680910020135,488.69352950016037,489.6772786001675,490.7612658001017,v,0,1.0740652000531554,None,304747,001,2024-11-26_16h28.03.313,PRIYANSHI.AU2220101_solo.project,2024.1.5,None,2024-11-26 16h28.11.365439 +0530,
,,60,v,,,,,12,1,61,3,490.7764416001737,,,,,,,,,,,,,,,490.76173570007086,490.7764416001737,491.77661050017923,491.77661050017923,491.77661050017923,491.77661050017923,491.77661050017923,491.77661050017923,492.7767133000307,494.66150750010274,x,0,1.8757977001369,None,304747,001,2024-11-26_16h28.03.313,PRIYANSHI.AU2220101_solo.project,2024.1.5,None,2024-11-26 16h28.11.365439 +0530,
,,-50,x,,,,,12,2,62,1,494.67651750007644,,,,,,,,,,,,,,,494.6623651001137,494.67651750007644,495.6769909001887,495.6769909001887,495.6769909001887,495.6769909001887,495.6769909001887,495.6769909001887,496.6765476001892,496.8611988001503,z,0,0.16955099999904633,None,304747,001,2024-11-26_16h28.03.313,PRIYANSHI.AU2220101_solo.project,2024.1.5,None,2024-11-26 16h28.11.365439 +0530,
,,-150,z,,,,,12,3,63,0,496.87710930011235,,,,,,,,,,,,,,,496.8618428001646,496.87710930011235,497.8772770999931,497.8772770999931,497.8772770999931,497.8772770999931,497.8772770999931,497.8772770999931,498.8763689000625,499.1275583000388,x,0,0.24445510003715754,None,304747,001,2024-11-26_16h28.03.313,PRIYANSHI.AU2220101_solo.project,2024.1.5,None,2024-11-26 16h28.11.365439 +0530,
,,-150,z,,,,,12,4,64,0,499.1430240001064,,,,,,,,,,,,,,,499.12823110003956,499.1430240001064,500.1430825002026,500.1430825002026,500.1430825002026,500.1430825002026,500.1430825002026,500.1430825002026,501.1269853000995,503.3947403000202,c,0,2.255725899944082,None,304747,001,2024-11-26_16h28.03.313,PRIYANSHI.AU2220101_solo.project,2024.1.5,None,2024-11-26 16h28.11.365439 +0530,
,,-150,z,,,,,13,0,65,0,503.4097923000809,,,,,,,,,,,,,,,503.3956294001546,503.4097923000809,504.4095736001618,504.4095736001618,504.4095736001618,504.4095736001618,504.4095736001618,504.4095736001618,505.41008420009166,506.1119125999976,z,0,0.6907958998344839,None,304747,001,2024-11-26_16h28.03.313,PRIYANSHI.AU2220101_solo.project,2024.1.5,None,2024-11-26 16h28.11.365439 +0530,
,,60,v,,,,,13,1,66,3,506.1266991000157,,,,,,,,,,,,,,,506.1128060000483,506.1266991000157,507.1265860002022,507.1265860002022,507.1265860002022,507.1265860002022,507.1265860002022,507.1265860002022,508.12628370011225,509.0611511000898,x,0,0.9186005000956357,None,304747,001,2024-11-26_16h28.03.313,PRIYANSHI.AU2220101_solo.project,2024.1.5,None,2024-11-26 16h28.11.365439 +0530,
,,-50,x,,,,,13,2,67,1,509.0765796001069,,,,,,,,,,,,,,,509.06175240012817,509.0765796001069,510.0768929000478,510.0768929000478,510.0768929000478,510.0768929000478,510.0768929000478,510.0768929000478,511.0762273001019,512.2273062001914,v,0,1.1476748001296073,None,304747,001,2024-11-26_16h28.03.313,PRIYANSHI.AU2220101_solo.project,2024.1.5,None,2024-11-26 16h28.11.365439 +0530,
,,150,b,,,,,13,3,68,4,512.2428761001211,,,,,,,,,,,,,,,512.2279430001508,512.2428761001211,513.2432900001295,513.2432900001295,513.2432900001295,513.2432900001295,513.2432900001295,513.2432900001295,514.2433458999731,516.4434893000871,b,0,2.1867329000961035,None,304747,001,2024-11-26_16h28.03.313,PRIYANSHI.AU2220101_solo.project,2024.1.5,None,2024-11-26 16h28.11.365439 +0530,
,,150,b,,,,,13,4,69,4,516.4591709000524,,,,,,,,,,,,,,,516.4440360001754,516.4591709000524,517.4431785000488,517.4431785000488,517.4431785000488,517.4431785000488,517.4431785000488,517.4597569999751,518.443126300117,519.1435843000654,z,0,0.6846072000917047,None,304747,001,2024-11-26_16h28.03.313,PRIYANSHI.AU2220101_solo.project,2024.1.5,None,2024-11-26 16h28.11.365439 +0530,
,,-50,x,,,,,14,0,70,1,519.1590764001012,,,,,,,,,,,,,,,519.1442137002014,519.1590764001012,520.1592340001371,520.1592340001371,520.1592340001371,520.1592340001371,520.1592340001371,520.1592340001371,521.1431611999869,521.7605302999727,c,0,0.6043027001433074,None,304747,001,2024-11-26_16h28.03.313,PRIYANSHI.AU2220101_solo.project,2024.1.5,None,2024-11-26 16h28.11.365439 +0530,
,,60,v,,,,,14,1,71,3,521.7761233001947,,,,,,,,,,,,,,,521.7610245000105,521.7761233001947,522.7757701000664,522.7757701000664,522.7757701000664,522.7757701000664,522.7757701000664,522.7757701000664,523.7758069001138,527.9264716000762,z,0,4.146736199967563,None,304747,001,2024-11-26_16h28.03.313,PRIYANSHI.AU2220101_solo.project,2024.1.5,None,2024-11-26 16h28.11.365439 +0530,
,,150,b,,,,,14,2,72,4,527.9422659000847,,,,,,,,,,,,,,,527.927062000148,527.9422659000847,528.9262346001342,528.9262346001342,528.9262346001342,528.9262346001342,528.9262346001342,528.9428773000836,529.9260036000051,531.0103666000068,c,0,1.0822363998740911,None,304747,001,2024-11-26_16h28.03.313,PRIYANSHI.AU2220101_solo.project,2024.1.5,None,2024-11-26 16h28.11.365439 +0530,
,,-150,z,,,,,14,3,73,0,531.0255297999829,,,,,,,,,,,,,,,531.0108757000417,531.0255297999829,532.025542500196,532.025542500196,532.025542500196,532.025542500196,532.025542500196,532.025542500196,533.0262905000709,534.2440027000848,v,0,1.2156660000327975,None,304747,001,2024-11-26_16h28.03.313,PRIYANSHI.AU2220101_solo.project,2024.1.5,None,2024-11-26 16h28.11.365439 +0530,
,,60,v,,,,,14,4,74,3,534.2592352000065,,,,,,,,,,,,,,,534.2445135000162,534.2592352000065,535.2587469001301,535.2587469001301,535.2587469001301,535.2587469001301,535.2587469001301,535.2587469001301,536.2587582000997,536.9605068999808,x,0,0.697967299958691,None,304747,001,2024-11-26_16h28.03.313,PRIYANSHI.AU2220101_solo.project,2024.1.5,None,2024-11-26 16h28.11.365439 +0530,
,,-50,x,,,,,15,0,75,1,536.9757726001553,,,,,,,,,,,,,,,536.9610904001165,536.9757726001553,537.9760869001038,537.9760869001038,537.9760869001038,537.9760869001038,537.9760869001038,537.9760869001038,538.9753758001607,540.6438578001689,v,0,1.651298400014639,None,304747,001,2024-11-26_16h28.03.313,PRIYANSHI.AU2220101_solo.project,2024.1.5,None,2024-11-26 16h28.11.365439 +0530,
,,-150,z,,,,,15,1,76,0,540.659197299974,,,,,,,,,,,,,,,540.6444374001585,540.659197299974,541.6592610999942,541.6592610999942,541.6592610999942,541.6592610999942,541.6592610999942,541.6592610999942,542.6586037001107,542.7261173001025,b,0,0.0552802998572588,None,304747,001,2024-11-26_16h28.03.313,PRIYANSHI.AU2220101_solo.project,2024.1.5,None,2024-11-26 16h28.11.365439 +0530,
,,150,b,,,,,15,2,77,4,542.7417142000049,,,,,,,,,,,,,,,542.7266456000507,542.7417142000049,543.7418168000877,543.7418168000877,543.7418168000877,543.7418168000877,543.7418168000877,543.7418168000877,544.7258768000174,545.027180199977,c,0,0.2855620998889208,None,304747,001,2024-11-26_16h28.03.313,PRIYANSHI.AU2220101_solo.project,2024.1.5,None,2024-11-26 16h28.11.365439 +0530,
,,150,b,,,,,15,3,78,4,545.042486099992,,,,,,,,,,,,,,,545.0280412000138,545.042486099992,546.042624300113,546.042624300113,546.042624300113,546.042624300113,546.042624300113,546.042624300113,547.0419692001306,549.5600896000396,c,0,2.512234900146723,None,304747,001,2024-11-26_16h28.03.313,PRIYANSHI.AU2220101_solo.project,2024.1.5,None,2024-11-26 16h28.11.365439 +0530,
,,50,c,,,,,15,4,79,2,549.5754562001675,,,,,,,,,,,,,,,549.5606671001296,549.5754562001675,550.5749633000232,550.5749633000232,550.5749633000232,550.5749633000232,550.5749633000232,550.5749633000232,551.5751790001523,555.6258839999791,z,0,4.033613099949434,None,304747,001,2024-11-26_16h28.03.313,PRIYANSHI.AU2220101_solo.project,2024.1.5,None,2024-11-26 16h28.11.365439 +0530,
,,50,c,,,,,16,0,80,2,555.6417211000808,,,,,,,,,,,,,,,555.6265285001136,555.6417211000808,556.641486100154,556.641486100154,556.641486100154,556.641486100154,556.641486100154,556.641486100154,557.6257367001381,558.5929281001445,c,0,0.9559579999186099,None,304747,001,2024-11-26_16h28.03.313,PRIYANSHI.AU2220101_solo.project,2024.1.5,None,2024-11-26 16h28.11.365439 +0530,
,,60,v,,,,,16,1,81,3,558.6085721000563,,,,,,,,,,,,,,,558.5935207000002,558.6085721000563,559.6084120001178,559.6084120001178,559.6084120001178,559.6084120001178,559.6084120001178,559.6084120001178,560.6080563000869,561.8761299999896,v,0,1.2630841000936925,None,304747,001,2024-11-26_16h28.03.313,PRIYANSHI.AU2220101_solo.project,2024.1.5,None,2024-11-26 16h28.11.365439 +0530,
,,60,v,,,,,16,2,82,3,561.8919187001884,,,,,,,,,,,,,,,561.8766763000749,561.8919187001884,562.891362400027,562.891362400027,562.891362400027,562.891362400027,562.891362400027,562.891362400027,563.8916009999812,563.9937661001459,b,0,0.100037100026384,None,304747,001,2024-11-26_16h28.03.313,PRIYANSHI.AU2220101_solo.project,2024.1.5,None,2024-11-26 16h28.11.365439 +0530,
,,150,b,,,,,16,3,83,4,564.0080483001657,,,,,,,,,,,,,,,563.9946660001297,564.0080483001657,565.0086614000611,565.0086614000611,565.0086614000611,565.0086614000611,565.0086614000611,565.0086614000611,566.0087201001588,567.4593244001735,v,0,1.4493375001475215,None,304747,001,2024-11-26_16h28.03.313,PRIYANSHI.AU2220101_solo.project,2024.1.5,None,2024-11-26 16h28.11.365439 +0530,
,,50,c,,,,,16,4,84,2,567.4744264001492,,,,,,,,,,,,,,,567.4598123000469,567.4744264001492,568.4745551000815,568.4745551000815,568.4745551000815,568.4745551000815,568.4745551000815,568.4745551000815,569.4751478000544,569.659556500148,c,0,0.17242169985547662,None,304747,001,2024-11-26_16h28.03.313,PRIYANSHI.AU2220101_solo.project,2024.1.5,None,2024-11-26 16h28.11.365439 +0530,
,,50,c,,,,,17,0,85,2,569.6750306000467,,,,,,,,,,,,,,,569.6601273000706,569.6750306000467,570.6745029001031,570.6745029001031,570.6745029001031,570.6745029001031,570.6745029001031,570.6745029001031,571.6749106000643,572.4086794999894,x,0,0.7182285999879241,None,304747,001,2024-11-26_16h28.03.313,PRIYANSHI.AU2220101_solo.project,2024.1.5,None,2024-11-26 16h28.11.365439 +0530,
,,60,v,,,,,17,1,86,3,572.4243576000445,,,,,,,,,,,,,,,572.4091498001944,572.4243576000445,573.4083124999888,573.4083124999888,573.4083124999888,573.4083124999888,573.4083124999888,573.4250637001824,574.4081215001643,574.6096734001767,z,0,0.1914801001548767,None,304747,001,2024-11-26_16h28.03.313,PRIYANSHI.AU2220101_solo.project,2024.1.5,None,2024-11-26 16h28.11.365439 +0530,
,,150,b,,,,,17,2,87,4,574.6249014001805,,,,,,,,,,,,,,,574.6101565000135,574.6249014001805,575.6243557000998,575.6243557000998,575.6243557000998,575.6243557000998,575.6243557000998,575.6243557000998,576.6243043001741,577.9093182000797,z,0,1.2734302000608295,None,304747,001,2024-11-26_16h28.03.313,PRIYANSHI.AU2220101_solo.project,2024.1.5,None,2024-11-26 16h28.11.365439 +0530,
,,50,c,,,,,17,3,88,2,577.9248538999818,,,,,,,,,,,,,,,577.9098235000856,577.9248538999818,578.9244824000634,578.9244824000634,578.9244824000634,578.9244824000634,578.9244824000634,578.9244824000634,579.924411999993,582.4096034001559,c,0,2.4696890998166054,None,304747,001,2024-11-26_16h28.03.313,PRIYANSHI.AU2220101_solo.project,2024.1.5,None,2024-11-26 16h28.11.365439 +0530,
,,-50,x,,,,,17,4,89,1,582.4248302001506,,,,,,,,,,,,,,,582.4104447001591,582.4248302001506,583.424129600171,583.424129600171,583.424129600171,583.424129600171,583.424129600171,583.424129600171,584.4241009000689,584.8090671000537,v,0,0.3818140998482704,None,304747,001,2024-11-26_16h28.03.313,PRIYANSHI.AU2220101_solo.project,2024.1.5,None,2024-11-26 16h28.11.365439 +0530,
,,150,b,,,,,18,0,90,4,584.8247458001133,,,,,,,,,,,,,,,584.8096372000873,584.8247458001133,585.8246271000244,585.8246271000244,585.8246271000244,585.8246271000244,585.8246271000244,585.8246271000244,586.8242218000814,587.2423273001332,b,0,0.4169437000527978,None,304747,001,2024-11-26_16h28.03.313,PRIYANSHI.AU2220101_solo.project,2024.1.5,None,2024-11-26 16h28.11.365439 +0530,
,,-50,x,,,,,18,1,91,1,587.2573417001404,,,,,,,,,,,,,,,587.2428437999915,587.2573417001404,588.2573337000795,588.2573337000795,588.2573337000795,588.2573337000795,588.2573337000795,588.2573337000795,589.2578722999897,589.8256711000577,z,0,0.5621058000251651,None,304747,001,2024-11-26_16h28.03.313,PRIYANSHI.AU2220101_solo.project,2024.1.5,None,2024-11-26 16h28.11.365439 +0530,
,,60,v,,,,,18,2,92,3,589.8410746001173,,,,,,,,,,,,,,,589.8261679999996,589.8410746001173,590.8407495999709,590.8407495999709,590.8407495999709,590.8407495999709,590.8407495999709,590.8407495999709,591.8407933001872,593.5094974001404,c,0,1.6551789999939501,None,304747,001,2024-11-26_16h28.03.313,PRIYANSHI.AU2220101_solo.project,2024.1.5,None,2024-11-26 16h28.11.365439 +0530,
,,60,v,,,,,18,3,93,3,593.5244099001866,,,,,,,,,,,,,,,593.5103802999947,593.5244099001866,594.5241647001822,594.5241647001822,594.5241647001822,594.5241647001822,594.5241647001822,594.5241647001822,595.523908500094,596.8092229000758,b,0,1.2834121999330819,None,304747,001,2024-11-26_16h28.03.313,PRIYANSHI.AU2220101_solo.project,2024.1.5,None,2024-11-26 16h28.11.365439 +0530,
,,-150,z,,,,,18,4,94,0,596.8242464000359,,,,,,,,,,,,,,,596.8098346001934,596.8242464000359,597.8244356000796,597.8244356000796,597.8244356000796,597.8244356000796,597.8244356000796,597.8244356000796,598.8245534000453,599.4082178000826,z,0,0.5805890001356602,None,304747,001,2024-11-26_16h28.03.313,PRIYANSHI.AU2220101_solo.project,2024.1.5,None,2024-11-26 16h28.11.365439 +0530,
,,50,c,,,,,19,0,95,2,599.4237627000548,,,,,,,,,,,,,,,599.4087309001479,599.4237627000548,600.424235700164,600.424235700164,600.424235700164,600.424235700164,600.424235700164,600.424235700164,601.4075732000638,602.0090424001683,c,0,0.5991490001324564,None,304747,001,2024-11-26_16h28.03.313,PRIYANSHI.AU2220101_solo.project,2024.1.5,None,2024-11-26 16h28.11.365439 +0530,
,,-150,z,,,,,19,1,96,0,602.0240623001009,,,,,,,,,,,,,,,602.0096370000392,602.0240623001009,603.0239578001201,603.0239578001201,603.0239578001201,603.0239578001201,603.0239578001201,603.0239578001201,604.0236392000224,606.0082698999904,z,0,1.9757002999540418,None,304747,001,2024-11-26_16h28.03.313,PRIYANSHI.AU2220101_solo.project,2024.1.5,None,2024-11-26 16h28.11.365439 +0530,
,,-50,x,,,,,19,2,97,1,606.0239030001685,,,,,,,,,,,,,,,606.0088635999709,606.0239030001685,607.0238057000097,607.0238057000097,607.0238057000097,607.0238057000097,607.0238057000097,607.0238057000097,608.0234741000459,609.2751353001222,x,0,1.2437604998704046,None,304747,001,2024-11-26_16h28.03.313,PRIYANSHI.AU2220101_solo.project,2024.1.5,None,2024-11-26 16h28.11.365439 +0530,
,,50,c,,,,,19,3,98,2,609.2906860001385,,,,,,,,,,,,,,,609.2757265002001,609.2906860001385,610.2905898001045,610.2905898001045,610.2905898001045,610.2905898001045,610.2905898001045,610.2905898001045,611.2899341001175,614.5249318999704,v,0,3.2325862001162022,None,304747,001,2024-11-26_16h28.03.313,PRIYANSHI.AU2220101_solo.project,2024.1.5,None,2024-11-26 16h28.11.365439 +0530,
,,-150,z,,,,,19,4,99,0,614.540646500187,,,,,,,,,,,,,,,614.5254892001394,614.540646500187,615.5399466999806,615.5399466999806,615.5399466999806,615.5399466999806,615.5399466999806,615.5399466999806,616.5399072000291,616.9588844000828,b,0,0.4162375999148935,None,304747,001,2024-11-26_16h28.03.313,PRIYANSHI.AU2220101_solo.project,2024.1.5,None,2024-11-26 16h28.11.365439 +0530,
