pos,corr_resp,trials.thisRepN,trials.thisTrialN,trials.thisN,trials.thisIndex,trials_2.thisRepN,trials_2.thisTrialN,trials_2.thisN,trials_2.thisIndex,thisRow.t,notes,trial.started,fixciation.started,fixciation_2.started,fixciation_3.started,fixciation_4.started,fixciation_5.started,fixciation.stopped,key_resp.started,trial.stopped,key_resp.keys,key_resp.corr,key_resp.rt,key_resp.duration,test.started,stimulus.started,stimulus_2.started,stimulus_3.started,stimulus_4.started,stimulus_5.started,stimulus.stopped,key_resp_2.started,test.stopped,key_resp_2.keys,key_resp_2.corr,key_resp_2.rt,key_resp_2.duration,participant,session,date,expName,psychopyVersion,frameRate,expStart,
-50,a,0,0,0,0,,,,,0.23785470006987453,,0.22575889993458986,0.23785470006987453,1.011968000093475,1.011968000093475,1.011968000093475,1.011968000093475,1.245488400105387,2.0135453001130372,6.513536100042984,s,0,4.491435199975967,None,,,,,,,,,,,,,,409280,001,2024-11-25_20h39.38.476,PRIYANSHI.AU2220101_solo.project,2024.1.5,None,2024-11-25 20h39.49.757073 +0530,
-150,s,0,1,1,1,,,,,6.528439300134778,,6.5172361000441015,6.528439300134778,7.529786900151521,7.529786900151521,7.529786900151521,7.529786900151521,7.529786900151521,8.529207699932158,9.529693700140342,d,0,0.9915346000343561,None,,,,,,,,,,,,,,409280,001,2024-11-25_20h39.38.476,PRIYANSHI.AU2220101_solo.project,2024.1.5,None,2024-11-25 20h39.49.757073 +0530,
50,d,0,2,2,2,,,,,9.545669900020584,,9.531255400041118,9.545669900020584,10.546461899997666,10.546461899997666,10.546461899997666,10.546461899997666,10.546461899997666,11.546828099992126,11.584264900069684,f,0,0.03271179995499551,None,,,,,,,,,,,,,,409280,001,2024-11-25_20h39.38.476,PRIYANSHI.AU2220101_solo.project,2024.1.5,None,2024-11-25 20h39.49.757073 +0530,
150,f,0,3,3,3,,,,,11.596246600151062,,11.586984799942002,11.596246600151062,12.595748600084335,12.595748600084335,12.595748600084335,12.595748600084335,12.595748600084335,13.59573379997164,14.197072300128639,g,0,0.5963800998870283,None,,,,,,,,,,,,,,409280,001,2024-11-25_20h39.38.476,PRIYANSHI.AU2220101_solo.project,2024.1.5,None,2024-11-25 20h39.49.757073 +0530,
60,g,0,4,4,4,,,,,14.215034900000319,,14.19810099992901,14.215034900000319,15.196728100068867,15.196728100068867,15.196728100068867,15.196728100068867,15.229466400109231,16.212051100097597,16.331273999996483,a,0,0.11305409995839,None,,,,,,,,,,,,,,409280,001,2024-11-25_20h39.38.476,PRIYANSHI.AU2220101_solo.project,2024.1.5,None,2024-11-25 20h39.49.757073 +0530,
-50,a,1,0,5,0,,,,,16.348651400068775,,16.332440700149164,16.348651400068775,17.34559360006824,17.34559360006824,17.34559360006824,17.34559360006824,17.362168099964038,18.3458638000302,19.43250590004027,d,0,1.076605600072071,None,,,,,,,,,,,,,,409280,001,2024-11-25_20h39.38.476,PRIYANSHI.AU2220101_solo.project,2024.1.5,None,2024-11-25 20h39.49.757073 +0530,
-150,s,1,1,6,1,,,,,19.44562719995156,,19.4336063999217,19.44562719995156,20.44579640007578,20.44579640007578,20.44579640007578,20.44579640007578,20.44579640007578,21.445185499964282,22.580894500017166,g,0,1.1277054001111537,None,,,,,,,,,,,,,,409280,001,2024-11-25_20h39.38.476,PRIYANSHI.AU2220101_solo.project,2024.1.5,None,2024-11-25 20h39.49.757073 +0530,
50,d,1,2,7,2,,,,,22.595141200115904,,22.583234100136906,22.595141200115904,23.5954571000766,23.5954571000766,23.5954571000766,23.5954571000766,23.5954571000766,24.594889899948612,25.862479400122538,s,0,1.2603887999430299,None,,,,,,,,,,,,,,409280,001,2024-11-25_20h39.38.476,PRIYANSHI.AU2220101_solo.project,2024.1.5,None,2024-11-25 20h39.49.757073 +0530,
150,f,1,3,8,3,,,,,25.87808379996568,,25.863500900100917,25.87808379996568,26.879603600129485,26.879603600129485,26.879603600129485,26.879603600129485,26.879603600129485,27.87876099999994,28.879271999932826,f,1,0.9933178999926895,None,,,,,,,,,,,,,,409280,001,2024-11-25_20h39.38.476,PRIYANSHI.AU2220101_solo.project,2024.1.5,None,2024-11-25 20h39.49.757073 +0530,
60,g,1,4,9,4,,,,,28.89620120008476,,28.881053100107238,28.89620120008476,29.894890499999747,29.894890499999747,29.894890499999747,29.894890499999747,29.911778300069273,30.895894899964333,32.56267810007557,a,0,1.6568205999210477,None,,,,,,,,,,,,,,409280,001,2024-11-25_20h39.38.476,PRIYANSHI.AU2220101_solo.project,2024.1.5,None,2024-11-25 20h39.49.757073 +0530,
-50,a,2,0,10,0,,,,,32.57822160003707,,32.56363880005665,32.57822160003707,33.57798589998856,33.57798589998856,33.57798589998856,33.57798589998856,33.57798589998856,34.578182300087065,36.34676370001398,s,0,1.7600812998134643,None,,,,,,,,,,,,,,409280,001,2024-11-25_20h39.38.476,PRIYANSHI.AU2220101_solo.project,2024.1.5,None,2024-11-25 20h39.49.757073 +0530,
-150,s,2,1,11,1,,,,,36.361731600016356,,36.34839710011147,36.361731600016356,37.361277600051835,37.361277600051835,37.361277600051835,37.361277600051835,37.361277600051835,38.36080319993198,39.39776320010424,f,0,1.0348209000658244,None,,,,,,,,,,,,,,409280,001,2024-11-25_20h39.38.476,PRIYANSHI.AU2220101_solo.project,2024.1.5,None,2024-11-25 20h39.49.757073 +0530,
50,d,2,2,12,2,,,,,39.4115586001426,,39.399686000077054,39.4115586001426,40.41251870011911,40.41251870011911,40.41251870011911,40.41251870011911,40.41251870011911,41.410936099942774,43.7637191999238,a,0,2.337669000029564,None,,,,,,,,,,,,,,409280,001,2024-11-25_20h39.38.476,PRIYANSHI.AU2220101_solo.project,2024.1.5,None,2024-11-25 20h39.49.757073 +0530,
150,f,2,3,13,3,,,,,43.77869660011493,,43.76582280010916,43.77869660011493,44.777747000101954,44.777747000101954,44.777747000101954,44.777747000101954,44.777747000101954,45.77876030001789,46.09599360008724,s,0,0.300733600044623,None,,,,,,,,,,,,,,409280,001,2024-11-25_20h39.38.476,PRIYANSHI.AU2220101_solo.project,2024.1.5,None,2024-11-25 20h39.49.757073 +0530,
60,g,2,4,14,4,,,,,46.110742500051856,,46.096981700044125,46.110742500051856,47.11204989999533,47.11204989999533,47.11204989999533,47.11204989999533,47.11204989999533,48.11129690008238,48.414363499963656,d,0,0.2864892999641597,None,,,,,,,,,,,,,,409280,001,2024-11-25_20h39.38.476,PRIYANSHI.AU2220101_solo.project,2024.1.5,None,2024-11-25 20h39.49.757073 +0530,
-50,a,3,0,15,0,,,,,48.4280600999482,,48.4155665000435,48.4280600999482,49.42898660013452,49.42898660013452,49.42898660013452,49.42898660013452,49.42898660013452,50.4278146000579,51.98039690009318,g,0,1.5501109999604523,None,,,,,,,,,,,,,,409280,001,2024-11-25_20h39.38.476,PRIYANSHI.AU2220101_solo.project,2024.1.5,None,2024-11-25 20h39.49.757073 +0530,
-150,s,3,1,16,1,,,,,51.994876499986276,,51.981416899943724,51.994876499986276,52.994946900056675,52.994946900056675,52.994946900056675,52.994946900056675,52.994946900056675,53.99375999998301,54.216185400029644,a,0,0.20692489994689822,None,,,,,,,,,,,,,,409280,001,2024-11-25_20h39.38.476,PRIYANSHI.AU2220101_solo.project,2024.1.5,None,2024-11-25 20h39.49.757073 +0530,
50,d,3,2,17,2,,,,,54.22734440001659,,54.217805500142276,54.22734440001659,55.228063200134784,55.228063200134784,55.228063200134784,55.228063200134784,55.228063200134784,56.22785230004229,57.928597799967974,d,1,1.691421200055629,None,,,,,,,,,,,,,,409280,001,2024-11-25_20h39.38.476,PRIYANSHI.AU2220101_solo.project,2024.1.5,None,2024-11-25 20h39.49.757073 +0530,
150,f,3,3,18,3,,,,,57.94437039992772,,57.93009470007382,57.94437039992772,58.94495239993557,58.94495239993557,58.94495239993557,58.94495239993557,58.94495239993557,59.944932100130245,60.69543950003572,f,1,0.735883500194177,None,,,,,,,,,,,,,,409280,001,2024-11-25_20h39.38.476,PRIYANSHI.AU2220101_solo.project,2024.1.5,None,2024-11-25 20h39.49.757073 +0530,
60,g,3,4,19,4,,,,,60.71035830001347,,60.69702720013447,60.71035830001347,61.711237099952996,61.711237099952996,61.711237099952996,61.711237099952996,61.711237099952996,62.711066300049424,64.71364840003662,a,0,2.0000432999804616,None,,,,,,,,,,,,,,409280,001,2024-11-25_20h39.38.476,PRIYANSHI.AU2220101_solo.project,2024.1.5,None,2024-11-25 20h39.49.757073 +0530,
-50,a,4,0,20,0,,,,,64.72748730005696,,64.71535470010713,64.72748730005696,65.72698909998871,65.72698909998871,65.72698909998871,65.72698909998871,65.72698909998871,66.72707349993289,68.09720390010625,d,0,1.3674468998797238,None,,,,,,,,,,,,,,409280,001,2024-11-25_20h39.38.476,PRIYANSHI.AU2220101_solo.project,2024.1.5,None,2024-11-25 20h39.49.757073 +0530,
-150,s,4,1,21,1,,,,,68.11085040005855,,68.0982530999463,68.11085040005855,69.1113535000477,69.1113535000477,69.1113535000477,69.1113535000477,69.1113535000477,70.11009320011362,70.92912270012312,f,0,0.8173261999618262,None,,,,,,,,,,,,,,409280,001,2024-11-25_20h39.38.476,PRIYANSHI.AU2220101_solo.project,2024.1.5,None,2024-11-25 20h39.49.757073 +0530,
50,d,4,2,22,2,,,,,70.94341049995273,,70.93179109995253,70.94341049995273,71.9450358999893,71.9450358999893,71.9450358999893,71.9450358999893,71.9450358999893,72.9433854999952,74.72942420002073,a,0,1.772586700040847,None,,,,,,,,,,,,,,409280,001,2024-11-25_20h39.38.476,PRIYANSHI.AU2220101_solo.project,2024.1.5,None,2024-11-25 20h39.49.757073 +0530,
150,f,4,3,23,3,,,,,74.74434480001219,,74.73145089996979,74.74434480001219,75.74382199998945,75.74382199998945,75.74382199998945,75.74382199998945,75.74382199998945,76.74385219998658,77.16320940013975,f,1,0.41037969989702106,None,,,,,,,,,,,,,,409280,001,2024-11-25_20h39.38.476,PRIYANSHI.AU2220101_solo.project,2024.1.5,None,2024-11-25 20h39.49.757073 +0530,
60,g,4,4,24,4,,,,,77.17740659997799,,77.16542670014314,77.17740659997799,78.176907800138,78.176907800138,78.176907800138,78.176907800138,78.176907800138,79.17633980000392,80.27952140010893,s,0,1.0859944000840187,None,,,,,,,,,,,,,,409280,001,2024-11-25_20h39.38.476,PRIYANSHI.AU2220101_solo.project,2024.1.5,None,2024-11-25 20h39.49.757073 +0530,
-50,a,5,0,25,0,,,,,80.29416129994206,,80.28111600014381,80.29416129994206,81.2941108001396,81.2941108001396,81.2941108001396,81.2941108001396,81.2941108001396,82.29389080009423,82.92825050000101,a,1,0.6182460999116302,None,,,,,,,,,,,,,,409280,001,2024-11-25_20h39.38.476,PRIYANSHI.AU2220101_solo.project,2024.1.5,None,2024-11-25 20h39.49.757073 +0530,
-150,s,5,1,26,1,,,,,82.94394040014595,,82.92985670012422,82.94394040014595,83.94316260004416,83.94316260004416,83.94316260004416,83.94316260004416,83.94316260004416,84.94382099993527,87.16234520007856,d,0,2.2158039999194443,None,,,,,,,,,,,,,,409280,001,2024-11-25_20h39.38.476,PRIYANSHI.AU2220101_solo.project,2024.1.5,None,2024-11-25 20h39.49.757073 +0530,
50,d,5,2,27,2,,,,,87.17627699999139,,87.16485660010949,87.17627699999139,88.17720040003769,88.17720040003769,88.17720040003769,88.17720040003769,88.17720040003769,89.17617510003038,89.67820900003426,f,0,0.4930202001705766,None,,,,,,,,,,,,,,409280,001,2024-11-25_20h39.38.476,PRIYANSHI.AU2220101_solo.project,2024.1.5,None,2024-11-25 20h39.49.757073 +0530,
150,f,5,3,28,3,,,,,89.69299379992299,,89.68011300009675,89.69299379992299,90.69380110013299,90.69380110013299,90.69380110013299,90.69380110013299,90.69380110013299,91.69350920012221,91.72890480002388,a,0,0.019559399923309684,None,,,,,,,,,,,,,,409280,001,2024-11-25_20h39.38.476,PRIYANSHI.AU2220101_solo.project,2024.1.5,None,2024-11-25 20h39.49.757073 +0530,
60,g,5,4,29,4,,,,,91.74366139993072,,91.73058090009727,91.74366139993072,92.74347630003467,92.74347630003467,92.74347630003467,92.74347630003467,92.74347630003467,93.74352230015211,94.89484399999492,s,0,1.1487290998920798,None,,,,,,,,,,,,,,409280,001,2024-11-25_20h39.38.476,PRIYANSHI.AU2220101_solo.project,2024.1.5,None,2024-11-25 20h39.49.757073 +0530,
-50,a,6,0,30,0,,,,,94.91243749996647,,94.89627080014907,94.91243749996647,95.91051169997081,95.91051169997081,95.91051169997081,95.91051169997081,95.92669650004245,96.91058659995906,97.81228459998965,d,0,0.8978473998140544,None,,,,,,,,,,,,,,409280,001,2024-11-25_20h39.38.476,PRIYANSHI.AU2220101_solo.project,2024.1.5,None,2024-11-25 20h39.49.757073 +0530,
-150,s,6,1,31,1,,,,,97.82654049992561,,97.81329050008208,97.82654049992561,98.82723390008323,98.82723390008323,98.82723390008323,98.82723390008323,98.82723390008323,99.82750379992649,100.44521760009229,f,0,0.6004130998626351,None,,,,,,,,,,,,,,409280,001,2024-11-25_20h39.38.476,PRIYANSHI.AU2220101_solo.project,2024.1.5,None,2024-11-25 20h39.49.757073 +0530,
50,d,6,2,32,2,,,,,100.45942780002952,,100.44620479992591,100.45942780002952,101.45982570014894,101.45982570014894,101.45982570014894,101.45982570014894,101.45982570014894,102.45996570005082,105.59492920013145,g,0,3.123273199889809,None,,,,,,,,,,,,,,409280,001,2024-11-25_20h39.38.476,PRIYANSHI.AU2220101_solo.project,2024.1.5,None,2024-11-25 20h39.49.757073 +0530,
150,f,6,3,33,3,,,,,105.60984840011224,,105.59689099993557,105.60984840011224,106.61041690013371,106.61041690013371,106.61041690013371,106.61041690013371,106.61041690013371,107.60922869993374,109.19456810015254,f,1,1.5800576999317855,None,,,,,,,,,,,,,,409280,001,2024-11-25_20h39.38.476,PRIYANSHI.AU2220101_solo.project,2024.1.5,None,2024-11-25 20h39.49.757073 +0530,
60,g,6,4,34,4,,,,,109.2088792999275,,109.19569290010259,109.2088792999275,110.19445229996927,110.19445229996927,110.19445229996927,110.19445229996927,110.21057859994471,111.20956120011397,113.30975800007582,a,0,2.0914452001452446,None,,,,,,,,,,,,,,409280,001,2024-11-25_20h39.38.476,PRIYANSHI.AU2220101_solo.project,2024.1.5,None,2024-11-25 20h39.49.757073 +0530,
-50,a,7,0,35,0,,,,,113.32570030004717,,113.31131669995375,113.32570030004717,114.3268063000869,114.3268063000869,114.3268063000869,114.3268063000869,114.3268063000869,115.32671890011989,115.37951030000113,s,0,0.04956399998627603,None,,,,,,,,,,,,,,409280,001,2024-11-25_20h39.38.476,PRIYANSHI.AU2220101_solo.project,2024.1.5,None,2024-11-25 20h39.49.757073 +0530,
-150,s,7,1,36,1,,,,,115.39288650010712,,115.38053339999169,115.39288650010712,116.39240080001764,116.39240080001764,116.39240080001764,116.39240080001764,116.39240080001764,117.39239190006629,118.39531910000369,f,0,1.000050300033763,None,,,,,,,,,,,,,,409280,001,2024-11-25_20h39.38.476,PRIYANSHI.AU2220101_solo.project,2024.1.5,None,2024-11-25 20h39.49.757073 +0530,
50,d,7,2,37,2,,,,,118.40979860001244,,118.39633990009315,118.40979860001244,119.40950640011579,119.40950640011579,119.40950640011579,119.40950640011579,119.40950640011579,120.41046670009382,122.02920680004172,g,0,1.6117171999067068,None,,,,,,,,,,,,,,409280,001,2024-11-25_20h39.38.476,PRIYANSHI.AU2220101_solo.project,2024.1.5,None,2024-11-25 20h39.49.757073 +0530,
150,f,7,3,38,3,,,,,122.0432170999702,,122.03036279999651,122.0432170999702,123.0427504000254,123.0427504000254,123.0427504000254,123.0427504000254,123.0427504000254,124.04226280003786,125.2620691000484,s,0,1.2105805000755936,None,,,,,,,,,,,,,,409280,001,2024-11-25_20h39.38.476,PRIYANSHI.AU2220101_solo.project,2024.1.5,None,2024-11-25 20h39.49.757073 +0530,
60,g,7,4,39,4,,,,,125.27598479995504,,125.26426520012319,125.27598479995504,126.27705279993825,126.27705279993825,126.27705279993825,126.27705279993825,126.27705279993825,127.27586359996349,128.0617518001236,f,0,0.7806388998869807,None,,,,,,,,,,,,,,409280,001,2024-11-25_20h39.38.476,PRIYANSHI.AU2220101_solo.project,2024.1.5,None,2024-11-25 20h39.49.757073 +0530,
-50,a,8,0,40,0,,,,,128.07608060003258,,128.06359839998186,128.07608060003258,129.07684050011449,129.07684050011449,129.07684050011449,129.07684050011449,129.07684050011449,130.0758450999856,132.04451770009473,a,1,1.9625895000062883,None,,,,,,,,,,,,,,409280,001,2024-11-25_20h39.38.476,PRIYANSHI.AU2220101_solo.project,2024.1.5,None,2024-11-25 20h39.49.757073 +0530,
-150,s,8,1,41,1,,,,,132.05828270013444,,132.04592150007375,132.05828270013444,133.05944170011207,133.05944170011207,133.05944170011207,133.05944170011207,133.05944170011207,134.05904330010526,136.56046870001592,d,0,2.485907399794087,None,,,,,,,,,,,,,,409280,001,2024-11-25_20h39.38.476,PRIYANSHI.AU2220101_solo.project,2024.1.5,None,2024-11-25 20h39.49.757073 +0530,
50,d,8,2,42,2,,,,,136.57556829997338,,136.56138289999217,136.57556829997338,137.57651149993762,137.57651149993762,137.57651149993762,137.57651149993762,137.57651149993762,138.57514750002883,140.10957690002397,g,0,1.5181856001727283,None,,,,,,,,,,,,,,409280,001,2024-11-25_20h39.38.476,PRIYANSHI.AU2220101_solo.project,2024.1.5,None,2024-11-25 20h39.49.757073 +0530,
150,f,8,3,43,3,,,,,140.12488549994305,,140.11068639997393,140.12488549994305,141.10997160011902,141.10997160011902,141.10997160011902,141.10997160011902,141.12701799999923,142.12734270002693,142.52578849997371,a,0,0.3892820000182837,None,,,,,,,,,,,,,,409280,001,2024-11-25_20h39.38.476,PRIYANSHI.AU2220101_solo.project,2024.1.5,None,2024-11-25 20h39.49.757073 +0530,
60,g,8,4,44,4,,,,,142.54155570012517,,142.5273889999371,142.54155570012517,143.54342320002615,143.54342320002615,143.54342320002615,143.54342320002615,143.54342320002615,144.54252190003172,146.65916669997387,d,0,2.108870000112802,None,,,,,,,,,,,,,,409280,001,2024-11-25_20h39.38.476,PRIYANSHI.AU2220101_solo.project,2024.1.5,None,2024-11-25 20h39.49.757073 +0530,
-50,a,9,0,45,0,,,,,146.6749412000645,,146.66016730014235,146.6749412000645,147.67484420002438,147.67484420002438,147.67484420002438,147.67484420002438,147.67484420002438,148.6592735000886,148.71113820001483,f,0,0.04611220001243055,None,,,,,,,,,,,,,,409280,001,2024-11-25_20h39.38.476,PRIYANSHI.AU2220101_solo.project,2024.1.5,None,2024-11-25 20h39.49.757073 +0530,
-150,s,9,1,46,1,,,,,148.72523470013402,,148.71232910011895,148.72523470013402,149.7258387999609,149.7258387999609,149.7258387999609,149.7258387999609,149.7258387999609,150.72480480000377,153.1439473000355,a,0,2.4164410000666976,None,,,,,,,,,,,,,,409280,001,2024-11-25_20h39.38.476,PRIYANSHI.AU2220101_solo.project,2024.1.5,None,2024-11-25 20h39.49.757073 +0530,
50,d,9,2,47,2,,,,,153.1594926000107,,153.14506560005248,153.1594926000107,154.1600443001371,154.1600443001371,154.1600443001371,154.1600443001371,154.1600443001371,155.15799320000224,156.62651820015162,a,0,1.4576272000558674,None,,,,,,,,,,,,,,409280,001,2024-11-25_20h39.38.476,PRIYANSHI.AU2220101_solo.project,2024.1.5,None,2024-11-25 20h39.49.757073 +0530,
150,f,9,3,48,3,,,,,156.6420669001527,,156.6281314000953,156.6420669001527,157.64266459993087,157.64266459993087,157.64266459993087,157.64266459993087,157.64266459993087,158.64149120007642,159.77701710001566,f,1,1.133143899962306,None,,,,,,,,,,,,,,409280,001,2024-11-25_20h39.38.476,PRIYANSHI.AU2220101_solo.project,2024.1.5,None,2024-11-25 20h39.49.757073 +0530,
60,g,9,4,49,4,,,,,159.79232769994996,,159.77859689993784,159.79232769994996,160.79297169996426,160.79297169996426,160.79297169996426,160.79297169996426,160.79297169996426,161.79226050013676,163.0938103001099,g,1,1.2903567999601364,None,,,,,,,,,,,,,,409280,001,2024-11-25_20h39.38.476,PRIYANSHI.AU2220101_solo.project,2024.1.5,None,2024-11-25 20h39.49.757073 +0530,
-50,a,10,0,50,0,,,,,163.10783970006742,,163.09598740004003,163.10783970006742,164.10756170004606,164.10756170004606,164.10756170004606,164.10756170004606,164.10756170004606,165.1082146000117,167.1429041000083,a,1,2.0311161999125034,None,,,,,,,,,,,,,,409280,001,2024-11-25_20h39.38.476,PRIYANSHI.AU2220101_solo.project,2024.1.5,None,2024-11-25 20h39.49.757073 +0530,
-150,s,10,1,51,1,,,,,167.15838830010034,,167.1439221999608,167.15838830010034,168.1578607999254,168.1578607999254,168.1578607999254,168.1578607999254,168.1578607999254,169.1585010001436,169.24759749998339,s,1,0.0719045998994261,None,,,,,,,,,,,,,,409280,001,2024-11-25_20h39.38.476,PRIYANSHI.AU2220101_solo.project,2024.1.5,None,2024-11-25 20h39.49.757073 +0530,
50,d,10,2,52,2,,,,,169.2588560001459,,169.24941359995864,169.2588560001459,170.25873290002346,170.25873290002346,170.25873290002346,170.25873290002346,170.25873290002346,171.25774669996463,171.29276109999046,d,1,0.021761200157925487,None,,,,,,,,,,,,,,409280,001,2024-11-25_20h39.38.476,PRIYANSHI.AU2220101_solo.project,2024.1.5,None,2024-11-25 20h39.49.757073 +0530,
150,f,10,3,53,3,,,,,171.30744490004145,,171.29417410003953,171.30744490004145,172.30788889992982,172.30788889992982,172.30788889992982,172.30788889992982,172.30788889992982,173.30830750009045,175.87592520006,g,0,2.564993199892342,None,,,,,,,,,,,,,,409280,001,2024-11-25_20h39.38.476,PRIYANSHI.AU2220101_solo.project,2024.1.5,None,2024-11-25 20h39.49.757073 +0530,
60,g,10,4,54,4,,,,,175.89229450002313,,175.8769618999213,175.89229450002313,176.8761450999882,176.8761450999882,176.8761450999882,176.8761450999882,176.8916993001476,177.8918028001208,180.07618700014427,s,0,2.166979300091043,None,,,,,,,,,,,,,,409280,001,2024-11-25_20h39.38.476,PRIYANSHI.AU2220101_solo.project,2024.1.5,None,2024-11-25 20h39.49.757073 +0530,
-50,a,11,0,55,0,,,,,180.09173550014384,,180.07806670013815,180.09173550014384,181.09179710014723,181.09179710014723,181.09179710014723,181.09179710014723,181.09179710014723,182.09114010003395,183.55980960000306,f,0,1.454834199976176,None,,,,,,,,,,,,,,409280,001,2024-11-25_20h39.38.476,PRIYANSHI.AU2220101_solo.project,2024.1.5,None,2024-11-25 20h39.49.757073 +0530,
-150,s,11,1,56,1,,,,,183.57400540006347,,183.56194439996034,183.57400540006347,184.57499659992754,184.57499659992754,184.57499659992754,184.57499659992754,184.57499659992754,185.57427079998888,188.12810899992473,a,0,2.5357931000180542,None,,,,,,,,,,,,,,409280,001,2024-11-25_20h39.38.476,PRIYANSHI.AU2220101_solo.project,2024.1.5,None,2024-11-25 20h39.49.757073 +0530,
50,d,11,2,57,2,,,,,188.140547899995,,188.12905100011267,188.140547899995,189.14146240008995,189.14146240008995,189.14146240008995,189.14146240008995,189.14146240008995,190.1426472000312,191.49270480009727,d,1,1.3440904000308365,None,,,,,,,,,,,,,,409280,001,2024-11-25_20h39.38.476,PRIYANSHI.AU2220101_solo.project,2024.1.5,None,2024-11-25 20h39.49.757073 +0530,
150,f,11,3,58,3,,,,,191.5066710000392,,191.49434360000305,191.5066710000392,192.5083002001047,192.5083002001047,192.5083002001047,192.5083002001047,192.5083002001047,193.50739370007068,193.6136875001248,f,1,0.09000349999405444,None,,,,,,,,,,,,,,409280,001,2024-11-25_20h39.38.476,PRIYANSHI.AU2220101_solo.project,2024.1.5,None,2024-11-25 20h39.49.757073 +0530,
60,g,11,4,59,4,,,,,193.62513589998707,,193.61543569993228,193.62513589998707,194.62399909994565,194.62399909994565,194.62399909994565,194.62399909994565,194.62399909994565,195.62366949999705,197.62594090006314,a,0,1.995595799991861,None,,,,,,,,,,,,,,409280,001,2024-11-25_20h39.38.476,PRIYANSHI.AU2220101_solo.project,2024.1.5,None,2024-11-25 20h39.49.757073 +0530,
-50,a,12,0,60,0,,,,,197.64327690005302,,197.6273058000952,197.64327690005302,198.64040040015243,198.64040040015243,198.64040040015243,198.64040040015243,198.65725399996154,199.64099670015275,201.97638390003704,d,0,2.327812399948016,None,,,,,,,,,,,,,,409280,001,2024-11-25_20h39.38.476,PRIYANSHI.AU2220101_solo.project,2024.1.5,None,2024-11-25 20h39.49.757073 +0530,
-150,s,12,1,61,1,,,,,201.99098410014994,,201.97813379997388,201.99098410014994,202.99000590015203,202.99000590015203,202.99000590015203,202.99000590015203,202.99000590015203,203.99067620001733,205.0933503000997,g,0,1.0850586001761258,None,,,,,,,,,,,,,,409280,001,2024-11-25_20h39.38.476,PRIYANSHI.AU2220101_solo.project,2024.1.5,None,2024-11-25 20h39.49.757073 +0530,
50,d,12,2,62,2,,,,,205.10829420015216,,205.09605980012566,205.10829420015216,206.10792370000854,206.10792370000854,206.10792370000854,206.10792370000854,206.10792370000854,207.10672840010375,207.2581575999502,a,0,0.13880780013278127,None,,,,,,,,,,,,,,409280,001,2024-11-25_20h39.38.476,PRIYANSHI.AU2220101_solo.project,2024.1.5,None,2024-11-25 20h39.49.757073 +0530,
150,f,12,3,63,3,,,,,207.27370120002888,,207.25920219998807,207.27370120002888,208.25699770008214,208.25699770008214,208.25699770008214,208.25699770008214,208.27391070011072,209.274647800019,210.07626900007017,d,0,0.7854489998426288,None,,,,,,,,,,,,,,409280,001,2024-11-25_20h39.38.476,PRIYANSHI.AU2220101_solo.project,2024.1.5,None,2024-11-25 20h39.49.757073 +0530,
60,g,12,4,64,4,,,,,210.0914585001301,,210.07762220012955,210.0914585001301,211.09203670010902,211.09203670010902,211.09203670010902,211.09203670010902,211.09203670010902,212.09072390012443,213.44378020009026,g,1,1.3500861001666635,None,,,,,,,,,,,,,,409280,001,2024-11-25_20h39.38.476,PRIYANSHI.AU2220101_solo.project,2024.1.5,None,2024-11-25 20h39.49.757073 +0530,
-50,a,13,0,65,0,,,,,213.45755230006762,,213.4449092000723,213.45755230006762,214.45751710003242,214.45751710003242,214.45751710003242,214.45751710003242,214.45751710003242,215.4569964001421,216.5254472999368,s,0,1.0534938999917358,None,,,,,,,,,,,,,,409280,001,2024-11-25_20h39.38.476,PRIYANSHI.AU2220101_solo.project,2024.1.5,None,2024-11-25 20h39.49.757073 +0530,
-150,s,13,1,66,1,,,,,216.5419485999737,,216.52636569994502,216.5419485999737,217.54047290002927,217.54047290002927,217.54047290002927,217.54047290002927,217.54047290002927,218.54075710009784,219.14181470009498,f,0,0.5951725000049919,None,,,,,,,,,,,,,,409280,001,2024-11-25_20h39.38.476,PRIYANSHI.AU2220101_solo.project,2024.1.5,None,2024-11-25 20h39.49.757073 +0530,
50,d,13,2,67,2,,,,,219.15806300006807,,219.14329400006682,219.15806300006807,220.15686560003087,220.15686560003087,220.15686560003087,220.15686560003087,220.15686560003087,221.15754549996927,221.6756993001327,f,0,0.5075008999556303,None,,,,,,,,,,,,,,409280,001,2024-11-25_20h39.38.476,PRIYANSHI.AU2220101_solo.project,2024.1.5,None,2024-11-25 20h39.49.757073 +0530,
150,f,13,3,68,3,,,,,221.69105300004594,,221.677694800077,221.69105300004594,222.6901257999707,222.6901257999707,222.6901257999707,222.6901257999707,222.6901257999707,223.68994070007466,223.82519840006717,s,0,0.12029269989579916,None,,,,,,,,,,,,,,409280,001,2024-11-25_20h39.38.476,PRIYANSHI.AU2220101_solo.project,2024.1.5,None,2024-11-25 20h39.49.757073 +0530,
60,g,13,4,69,4,,,,,223.8396636999678,,223.82766570011154,223.8396636999678,224.8405188000761,224.8405188000761,224.8405188000761,224.8405188000761,224.8405188000761,225.82411179994233,225.9259925999213,f,0,0.08667220012284815,None,,,,,,,,,,,,,,409280,001,2024-11-25_20h39.38.476,PRIYANSHI.AU2220101_solo.project,2024.1.5,None,2024-11-25 20h39.49.757073 +0530,
-50,a,14,0,70,0,,,,,225.94121650001034,,225.92794720013626,225.94121650001034,226.94032689998858,226.94032689998858,226.94032689998858,226.94032689998858,226.94032689998858,227.94039010000415,228.47525679995306,a,1,0.523320300038904,None,,,,,,,,,,,,,,409280,001,2024-11-25_20h39.38.476,PRIYANSHI.AU2220101_solo.project,2024.1.5,None,2024-11-25 20h39.49.757073 +0530,
-150,s,14,1,71,1,,,,,228.4903675999958,,228.47698300005868,228.4903675999958,229.49120469996706,229.49120469996706,229.49120469996706,229.49120469996706,229.49120469996706,230.48955850000493,231.0744441000279,f,0,0.5791454999707639,None,,,,,,,,,,,,,,409280,001,2024-11-25_20h39.38.476,PRIYANSHI.AU2220101_solo.project,2024.1.5,None,2024-11-25 20h39.49.757073 +0530,
50,d,14,2,72,2,,,,,231.09046700014733,,231.0752824000083,231.09046700014733,232.08915879996493,232.08915879996493,232.08915879996493,232.08915879996493,232.08915879996493,233.0897832000628,234.06043610000052,f,0,0.962070900015533,None,,,,,,,,,,,,,,409280,001,2024-11-25_20h39.38.476,PRIYANSHI.AU2220101_solo.project,2024.1.5,None,2024-11-25 20h39.49.757073 +0530,
150,f,14,3,73,3,,,,,234.07289790012874,,234.06346260011196,234.07289790012874,235.07463550008833,235.07463550008833,235.07463550008833,235.07463550008833,235.07463550008833,236.0726469999645,236.70849480014294,a,0,0.6241500999312848,None,,,,,,,,,,,,,,409280,001,2024-11-25_20h39.38.476,PRIYANSHI.AU2220101_solo.project,2024.1.5,None,2024-11-25 20h39.49.757073 +0530,
60,g,14,4,74,4,,,,,236.72413190011866,,236.710544800153,236.72413190011866,237.72411440010183,237.72411440010183,237.72411440010183,237.72411440010183,237.72411440010183,238.72337249992415,239.52447100006975,d,0,0.7863117000088096,None,,,,,,,,,,,,,,409280,001,2024-11-25_20h39.38.476,PRIYANSHI.AU2220101_solo.project,2024.1.5,None,2024-11-25 20h39.49.757073 +0530,
-50,a,15,0,75,0,,,,,239.53914509993047,,239.52649089996703,239.53914509993047,240.54034830001183,240.54034830001183,240.54034830001183,240.54034830001183,240.54034830001183,241.5401031000074,242.80853980011307,f,0,1.2632567998953164,None,,,,,,,,,,,,,,409280,001,2024-11-25_20h39.38.476,PRIYANSHI.AU2220101_solo.project,2024.1.5,None,2024-11-25 20h39.49.757073 +0530,
-150,s,15,1,76,1,,,,,242.8225531000644,,242.80992779997177,242.8225531000644,243.82282899995334,243.82282899995334,243.82282899995334,243.82282899995334,243.82282899995334,244.82273690006696,245.60843509994447,a,0,0.7774249000940472,None,,,,,,,,,,,,,,409280,001,2024-11-25_20h39.38.476,PRIYANSHI.AU2220101_solo.project,2024.1.5,None,2024-11-25 20h39.49.757073 +0530,
50,d,15,2,77,2,,,,,245.622890900122,,245.6106151000131,245.622890900122,246.62267630011775,246.62267630011775,246.62267630011775,246.62267630011775,246.62267630011775,247.62218019994907,249.10813009995036,f,0,1.4758854999672621,None,,,,,,,,,,,,,,409280,001,2024-11-25_20h39.38.476,PRIYANSHI.AU2220101_solo.project,2024.1.5,None,2024-11-25 20h39.49.757073 +0530,
150,f,15,3,78,3,,,,,249.125314099947,,249.110368499998,249.125314099947,250.12341200001538,250.12341200001538,250.12341200001538,250.12341200001538,250.1398549999576,251.1225998001173,251.34016599995084,g,0,0.2072120001539588,None,,,,,,,,,,,,,,409280,001,2024-11-25_20h39.38.476,PRIYANSHI.AU2220101_solo.project,2024.1.5,None,2024-11-25 20h39.49.757073 +0530,
60,g,15,4,79,4,,,,,251.357142199995,,251.34206590009853,251.357142199995,252.35724069993012,252.35724069993012,252.35724069993012,252.35724069993012,252.35724069993012,253.35596970003098,255.84077350003645,d,0,2.4750504000112414,None,,,,,,,,,,,,,,409280,001,2024-11-25_20h39.38.476,PRIYANSHI.AU2220101_solo.project,2024.1.5,None,2024-11-25 20h39.49.757073 +0530,
-50,a,16,0,80,0,,,,,255.8558865999803,,255.8418701000046,255.8558865999803,256.85623680008575,256.85623680008575,256.85623680008575,256.85623680008575,256.85623680008575,257.83936879993416,258.12335880007595,s,0,0.2780847998801619,None,,,,,,,,,,,,,,409280,001,2024-11-25_20h39.38.476,PRIYANSHI.AU2220101_solo.project,2024.1.5,None,2024-11-25 20h39.49.757073 +0530,
-150,s,16,1,81,1,,,,,258.1387249000836,,258.1248332001269,258.1387249000836,259.13920990005136,259.13920990005136,259.13920990005136,259.13920990005136,259.13920990005136,260.1391537000891,262.5902984000277,g,0,2.445266399998218,None,,,,,,,,,,,,,,409280,001,2024-11-25_20h39.38.476,PRIYANSHI.AU2220101_solo.project,2024.1.5,None,2024-11-25 20h39.49.757073 +0530,
50,d,16,2,82,2,,,,,262.60595889994875,,262.5916635999456,262.60595889994875,263.60542850010097,263.60542850010097,263.60542850010097,263.60542850010097,263.60542850010097,264.6060913000256,266.55707390001044,d,1,1.9486801999155432,None,,,,,,,,,,,,,,409280,001,2024-11-25_20h39.38.476,PRIYANSHI.AU2220101_solo.project,2024.1.5,None,2024-11-25 20h39.49.757073 +0530,
150,f,16,3,83,3,,,,,266.5727715000976,,266.55810780008323,266.5727715000976,267.57188990013674,267.57188990013674,267.57188990013674,267.57188990013674,267.57188990013674,268.57280980004,269.290498400107,a,0,0.7138001001439989,None,,,,,,,,,,,,,,409280,001,2024-11-25_20h39.38.476,PRIYANSHI.AU2220101_solo.project,2024.1.5,None,2024-11-25 20h39.49.757073 +0530,
60,g,16,4,84,4,,,,,269.3066088000778,,269.2915264000185,269.3066088000778,270.30560740013607,270.30560740013607,270.30560740013607,270.30560740013607,270.321631600149,271.3053041000385,272.4245088000316,s,0,1.1097512999549508,None,,,,,,,,,,,,,,409280,001,2024-11-25_20h39.38.476,PRIYANSHI.AU2220101_solo.project,2024.1.5,None,2024-11-25 20h39.49.757073 +0530,
-50,a,17,0,85,0,,,,,272.4401565999724,,272.42654930008575,272.4401565999724,273.43943849997595,273.43943849997595,273.43943849997595,273.43943849997595,273.43943849997595,274.43839300004765,275.2072368999943,g,0,0.7559491000138223,None,,,,,,,,,,,,,,409280,001,2024-11-25_20h39.38.476,PRIYANSHI.AU2220101_solo.project,2024.1.5,None,2024-11-25 20h39.49.757073 +0530,
-150,s,17,1,86,1,,,,,275.2215112999547,,275.20915649994276,275.2215112999547,276.2233717001509,276.2233717001509,276.2233717001509,276.2233717001509,276.2233717001509,277.2230467000045,277.5069458000362,a,0,0.26971399993635714,None,,,,,,,,,,,,,,409280,001,2024-11-25_20h39.38.476,PRIYANSHI.AU2220101_solo.project,2024.1.5,None,2024-11-25 20h39.49.757073 +0530,
50,d,17,2,87,2,,,,,277.522816499928,,277.5079779000953,277.522816499928,278.5219014000613,278.5219014000613,278.5219014000613,278.5219014000613,278.5219014000613,279.52231040014885,279.6239162001293,f,0,0.08500239998102188,None,,,,,,,,,,,,,,409280,001,2024-11-25_20h39.38.476,PRIYANSHI.AU2220101_solo.project,2024.1.5,None,2024-11-25 20h39.49.757073 +0530,
150,f,17,3,88,3,,,,,279.63977240002714,,279.62575350003317,279.63977240002714,280.6393721001223,280.6393721001223,280.6393721001223,280.6393721001223,280.6393721001223,281.6385320001282,283.07365570007823,s,0,1.4304753001779318,None,,,,,,,,,,,,,,409280,001,2024-11-25_20h39.38.476,PRIYANSHI.AU2220101_solo.project,2024.1.5,None,2024-11-25 20h39.49.757073 +0530,
60,g,17,4,89,4,,,,,283.0881966999732,,283.0747034000233,283.0881966999732,284.0892430001404,284.0892430001404,284.0892430001404,284.0892430001404,284.0892430001404,285.08889720006846,285.9066024001222,a,0,0.8043154000770301,None,,,,,,,,,,,,,,409280,001,2024-11-25_20h39.38.476,PRIYANSHI.AU2220101_solo.project,2024.1.5,None,2024-11-25 20h39.49.757073 +0530,
-50,a,18,0,90,0,,,,,285.92165830009617,,285.90784749994054,285.92165830009617,286.9214874000754,286.9214874000754,286.9214874000754,286.9214874000754,286.9214874000754,287.92156470008194,288.79094820003957,d,0,0.8659834999125451,None,,,,,,,,,,,,,,409280,001,2024-11-25_20h39.38.476,PRIYANSHI.AU2220101_solo.project,2024.1.5,None,2024-11-25 20h39.49.757073 +0530,
-150,s,18,1,91,1,,,,,288.80620300001465,,288.79280719999224,288.80620300001465,289.8052109000273,289.8052109000273,289.8052109000273,289.8052109000273,289.8052109000273,290.80454299994744,291.489613099955,d,0,0.6725524000357836,None,,,,,,,,,,,,,,409280,001,2024-11-25_20h39.38.476,PRIYANSHI.AU2220101_solo.project,2024.1.5,None,2024-11-25 20h39.49.757073 +0530,
50,d,18,2,92,2,,,,,291.50524460012093,,291.49067019997165,291.50524460012093,292.50505440006964,292.50505440006964,292.50505440006964,292.50505440006964,292.50505440006964,293.50554849999025,294.8734782000538,s,0,1.3604969999287277,None,,,,,,,,,,,,,,409280,001,2024-11-25_20h39.38.476,PRIYANSHI.AU2220101_solo.project,2024.1.5,None,2024-11-25 20h39.49.757073 +0530,
150,f,18,3,93,3,,,,,294.8879801000003,,294.87525189993903,294.8879801000003,295.88860530010425,295.88860530010425,295.88860530010425,295.88860530010425,295.88860530010425,296.888598700054,298.60554450005293,d,0,1.7110538999550045,None,,,,,,,,,,,,,,409280,001,2024-11-25_20h39.38.476,PRIYANSHI.AU2220101_solo.project,2024.1.5,None,2024-11-25 20h39.49.757073 +0530,
60,g,18,4,94,4,,,,,298.6212230999954,,298.60715629998595,298.6212230999954,299.62259320006706,299.62259320006706,299.62259320006706,299.62259320006706,299.62259320006706,300.62140000006184,300.97379920003004,a,0,0.34388520009815693,None,,,,,,,,,,,,,,409280,001,2024-11-25_20h39.38.476,PRIYANSHI.AU2220101_solo.project,2024.1.5,None,2024-11-25 20h39.49.757073 +0530,
-50,a,19,0,95,0,,,,,300.98861750005744,,300.9757495999802,300.98861750005744,301.9884735001251,301.9884735001251,301.9884735001251,301.9884735001251,301.9884735001251,302.987575000152,303.3725741999224,s,0,0.371805900009349,None,,,,,,,,,,,,,,409280,001,2024-11-25_20h39.38.476,PRIYANSHI.AU2220101_solo.project,2024.1.5,None,2024-11-25 20h39.49.757073 +0530,
-150,s,19,1,96,1,,,,,303.3888038001023,,303.37433030013926,303.3888038001023,304.3726930001285,304.3726930001285,304.3726930001285,304.3726930001285,304.38905539992265,305.38841999997385,306.1557285001036,g,0,0.7593986999709159,None,,,,,,,,,,,,,,409280,001,2024-11-25_20h39.38.476,PRIYANSHI.AU2220101_solo.project,2024.1.5,None,2024-11-25 20h39.49.757073 +0530,
50,d,19,2,97,2,,,,,306.17188829998486,,306.1566673000343,306.17188829998486,307.1707528999541,307.1707528999541,307.1707528999541,307.1707528999541,307.1707528999541,308.1708689001389,308.8426284000743,s,0,0.6651926999911666,None,,,,,,,,,,,,,,409280,001,2024-11-25_20h39.38.476,PRIYANSHI.AU2220101_solo.project,2024.1.5,None,2024-11-25 20h39.49.757073 +0530,
150,f,19,3,98,3,,,,,308.8540384999942,,308.8448843001388,308.8540384999942,309.85451790015213,309.85451790015213,309.85451790015213,309.85451790015213,309.85451790015213,310.8540485999547,311.121787100099,s,0,0.25332550005987287,None,,,,,,,,,,,,,,409280,001,2024-11-25_20h39.38.476,PRIYANSHI.AU2220101_solo.project,2024.1.5,None,2024-11-25 20h39.49.757073 +0530,
60,g,19,4,99,4,,,,,311.13719619996846,,311.1238851000089,311.13719619996846,312.1218757999595,312.1218757999595,312.1218757999595,312.1218757999595,312.13830460002646,313.1371492999606,314.2551883000415,g,1,1.1040107000153512,None,,,,,,,,,,,,,,409280,001,2024-11-25_20h39.38.476,PRIYANSHI.AU2220101_solo.project,2024.1.5,None,2024-11-25 20h39.49.757073 +0530,
150,f,,,,,0,0,0,3,314.2936311000958,,,,,,,,,,,,,,,314.2850794000551,314.2936311000958,315.2838320999872,315.2838320999872,315.2838320999872,315.2838320999872,315.30587520007975,316.25510499998927,317.4899252001196,f,1,1.221354000037536,None,409280,001,2024-11-25_20h39.38.476,PRIYANSHI.AU2220101_solo.project,2024.1.5,None,2024-11-25 20h39.49.757073 +0530,
-50,a,,,,,0,1,1,0,317.5053018000908,,,,,,,,,,,,,,,317.4934060999658,317.5053018000908,318.5047210000921,318.5047210000921,318.5047210000921,318.5047210000921,318.5047210000921,319.5044074000325,320.20564429997467,s,0,0.6850161999464035,None,409280,001,2024-11-25_20h39.38.476,PRIYANSHI.AU2220101_solo.project,2024.1.5,None,2024-11-25 20h39.49.757073 +0530,
150,f,,,,,0,2,2,3,320.2208217999432,,,,,,,,,,,,,,,320.2077369999606,320.2208217999432,321.2210607000161,321.2210607000161,321.2210607000161,321.2210607000161,321.2210607000161,322.22045570006594,322.65558030013926,s,0,0.42194800009019673,None,409280,001,2024-11-25_20h39.38.476,PRIYANSHI.AU2220101_solo.project,2024.1.5,None,2024-11-25 20h39.49.757073 +0530,
60,g,,,,,0,3,3,4,322.67125359992497,,,,,,,,,,,,,,,322.6572493999265,322.67125359992497,323.6721266999375,323.6721266999375,323.6721266999375,323.6721266999375,323.6721266999375,324.670008599991,325.539526599925,f,0,0.8637653000187129,None,409280,001,2024-11-25_20h39.38.476,PRIYANSHI.AU2220101_solo.project,2024.1.5,None,2024-11-25 20h39.49.757073 +0530,
-50,a,,,,,0,4,4,0,325.55332259996794,,,,,,,,,,,,,,,325.5413361999672,325.55332259996794,326.55583279998973,326.55583279998973,326.55583279998973,326.55583279998973,326.55583279998973,327.55446509993635,329.0556538000237,a,1,1.4945783999282867,None,409280,001,2024-11-25_20h39.38.476,PRIYANSHI.AU2220101_solo.project,2024.1.5,None,2024-11-25 20h39.49.757073 +0530,
150,f,,,,,1,0,5,3,329.07019539992325,,,,,,,,,,,,,,,329.0573935001157,329.07019539992325,330.06989430007525,330.06989430007525,330.06989430007525,330.06989430007525,330.06989430007525,331.07045940007083,331.7402306001168,d,0,0.6632191000971943,None,409280,001,2024-11-25_20h39.38.476,PRIYANSHI.AU2220101_solo.project,2024.1.5,None,2024-11-25 20h39.49.757073 +0530,
-50,a,,,,,1,1,6,0,331.7541782001499,,,,,,,,,,,,,,,331.7422863000538,331.7541782001499,332.75407609995455,332.75407609995455,332.75407609995455,332.75407609995455,332.75407609995455,333.7529623999726,334.48946089996025,g,0,0.7308888998813927,None,409280,001,2024-11-25_20h39.38.476,PRIYANSHI.AU2220101_solo.project,2024.1.5,None,2024-11-25 20h39.49.757073 +0530,
150,f,,,,,1,2,7,3,334.50417910004035,,,,,,,,,,,,,,,334.49110310012475,334.50417910004035,335.504555700114,335.504555700114,335.504555700114,335.504555700114,335.504555700114,336.50293620000593,337.78767200000584,s,0,1.2748569999821484,None,409280,001,2024-11-25_20h39.38.476,PRIYANSHI.AU2220101_solo.project,2024.1.5,None,2024-11-25 20h39.49.757073 +0530,
150,f,,,,,1,3,8,3,337.8032663001213,,,,,,,,,,,,,,,337.7885676000733,337.8032663001213,338.7872365999501,338.7872365999501,338.7872365999501,338.7872365999501,338.8040301001165,339.80398080009036,341.0386074001435,d,0,1.226968300063163,None,409280,001,2024-11-25_20h39.38.476,PRIYANSHI.AU2220101_solo.project,2024.1.5,None,2024-11-25 20h39.49.757073 +0530,
60,g,,,,,1,4,9,4,341.0534827001393,,,,,,,,,,,,,,,341.04059690004215,341.0534827001393,342.0534866999369,342.0534866999369,342.0534866999369,342.0534866999369,342.0534866999369,343.0544324000366,344.28938400000334,a,0,1.226794600021094,None,409280,001,2024-11-25_20h39.38.476,PRIYANSHI.AU2220101_solo.project,2024.1.5,None,2024-11-25 20h39.49.757073 +0530,
60,g,,,,,2,0,10,4,344.30390840000473,,,,,,,,,,,,,,,344.2917262001429,344.30390840000473,345.30298190005124,345.30298190005124,345.30298190005124,345.30298190005124,345.30298190005124,346.30341099994257,346.9570098000113,d,0,0.6447908000554889,None,409280,001,2024-11-25_20h39.38.476,PRIYANSHI.AU2220101_solo.project,2024.1.5,None,2024-11-25 20h39.49.757073 +0530,
-150,s,,,,,2,1,11,1,346.97023580013774,,,,,,,,,,,,,,,346.9589384000283,346.97023580013774,347.9704188001342,347.9704188001342,347.9704188001342,347.9704188001342,347.9704188001342,348.9701404001098,349.55572249996476,g,0,0.5759539001155645,None,409280,001,2024-11-25_20h39.38.476,PRIYANSHI.AU2220101_solo.project,2024.1.5,None,2024-11-25 20h39.49.757073 +0530,
-50,a,,,,,2,2,12,0,349.5700135000516,,,,,,,,,,,,,,,349.55821199994534,349.5700135000516,350.5707698999904,350.5707698999904,350.5707698999904,350.5707698999904,350.5707698999904,351.5701578001026,352.1573300000746,s,0,0.5815859001595527,None,409280,001,2024-11-25_20h39.38.476,PRIYANSHI.AU2220101_solo.project,2024.1.5,None,2024-11-25 20h39.49.757073 +0530,
50,d,,,,,2,3,13,2,352.17021130002104,,,,,,,,,,,,,,,352.15984540013596,352.17021130002104,353.16951759997755,353.16951759997755,353.16951759997755,353.16951759997755,353.16951759997755,354.16880430001765,354.82220469997264,f,0,0.6361730999778956,None,409280,001,2024-11-25_20h39.38.476,PRIYANSHI.AU2220101_solo.project,2024.1.5,None,2024-11-25 20h39.49.757073 +0530,
-150,s,,,,,2,4,14,1,354.8366948000621,,,,,,,,,,,,,,,354.8231687999796,354.8366948000621,355.83591250004247,355.83591250004247,355.83591250004247,355.83591250004247,355.83591250004247,356.83645249996334,356.9884623999242,a,0,0.14733669999986887,None,409280,001,2024-11-25_20h39.38.476,PRIYANSHI.AU2220101_solo.project,2024.1.5,None,2024-11-25 20h39.49.757073 +0530,
50,d,,,,,3,0,15,2,357.00265830010176,,,,,,,,,,,,,,,356.99060679995455,357.00265830010176,358.00384790007956,358.00384790007956,358.00384790007956,358.00384790007956,358.00384790007956,359.0025697001256,360.03774930001236,d,1,1.0245377998799086,None,409280,001,2024-11-25_20h39.38.476,PRIYANSHI.AU2220101_solo.project,2024.1.5,None,2024-11-25 20h39.49.757073 +0530,
-50,a,,,,,3,1,16,0,360.0524949999526,,,,,,,,,,,,,,,360.03874520002864,360.0524949999526,361.0535117001273,361.0535117001273,361.0535117001273,361.0535117001273,361.0535117001273,362.05236740014516,362.48754200013354,f,0,0.43292720010504127,None,409280,001,2024-11-25_20h39.38.476,PRIYANSHI.AU2220101_solo.project,2024.1.5,None,2024-11-25 20h39.49.757073 +0530,
60,g,,,,,3,2,17,4,362.5026573999785,,,,,,,,,,,,,,,362.4883564999327,362.5026573999785,363.5135659999214,363.5135659999214,363.5135659999214,363.5135659999214,363.5135659999214,364.5034398001153,365.371465299977,g,1,0.8633677999023348,None,409280,001,2024-11-25_20h39.38.476,PRIYANSHI.AU2220101_solo.project,2024.1.5,None,2024-11-25 20h39.49.757073 +0530,
-50,a,,,,,3,3,18,0,365.38589620008133,,,,,,,,,,,,,,,365.372469099937,365.38589620008133,366.386240700027,366.386240700027,366.386240700027,366.386240700027,366.386240700027,367.3860275000334,368.621416100068,f,0,1.2250395000446588,None,409280,001,2024-11-25_20h39.38.476,PRIYANSHI.AU2220101_solo.project,2024.1.5,None,2024-11-25 20h39.49.757073 +0530,
60,g,,,,,3,4,19,4,368.63657610001974,,,,,,,,,,,,,,,368.62373340013437,368.63657610001974,369.6381751000881,369.6381751000881,369.6381751000881,369.6381751000881,369.6381751000881,370.6357965001371,372.5213846999686,g,1,1.880828799912706,None,409280,001,2024-11-25_20h39.38.476,PRIYANSHI.AU2220101_solo.project,2024.1.5,None,2024-11-25 20h39.49.757073 +0530,
150,f,,,,,4,0,20,3,372.5359464001376,,,,,,,,,,,,,,,372.5227985000238,372.5359464001376,373.53692350001074,373.53692350001074,373.53692350001074,373.53692350001074,373.53692350001074,374.5362812001258,376.1875732000917,a,0,1.6410211001057178,None,409280,001,2024-11-25_20h39.38.476,PRIYANSHI.AU2220101_solo.project,2024.1.5,None,2024-11-25 20h39.49.757073 +0530,
50,d,,,,,4,1,21,2,376.2032093000598,,,,,,,,,,,,,,,376.1890376000665,376.2032093000598,377.20384850003757,377.20384850003757,377.20384850003757,377.20384850003757,377.20384850003757,378.20276400004514,378.38914310000837,s,0,0.18241769983433187,None,409280,001,2024-11-25_20h39.38.476,PRIYANSHI.AU2220101_solo.project,2024.1.5,None,2024-11-25 20h39.49.757073 +0530,
-150,s,,,,,4,2,22,1,378.40210690000094,,,,,,,,,,,,,,,378.3906589001417,378.40210690000094,379.40282640000805,379.40282640000805,379.40282640000805,379.40282640000805,379.40282640000805,380.4041458000429,381.42048400011845,d,0,1.0060146001633257,None,409280,001,2024-11-25_20h39.38.476,PRIYANSHI.AU2220101_solo.project,2024.1.5,None,2024-11-25 20h39.49.757073 +0530,
-50,a,,,,,4,3,23,0,381.4357948000543,,,,,,,,,,,,,,,381.42217890010215,381.4357948000543,382.418856699951,382.418856699951,382.418856699951,382.418856699951,382.43568590003997,383.43614230002277,383.4399417000823,f,0,0.0009447999764233828,None,409280,001,2024-11-25_20h39.38.476,PRIYANSHI.AU2220101_solo.project,2024.1.5,None,2024-11-25 20h39.49.757073 +0530,
-150,s,,,,,4,4,24,1,383.45240870001726,,,,,,,,,,,,,,,383.44156870013103,383.45240870001726,384.4526925999671,384.4526925999671,384.4526925999671,384.4526925999671,384.4526925999671,385.4518389001023,386.8379701001104,a,0,1.3836564000230283,None,409280,001,2024-11-25_20h39.38.476,PRIYANSHI.AU2220101_solo.project,2024.1.5,None,2024-11-25 20h39.49.757073 +0530,
-50,a,,,,,5,0,25,0,386.85186789999716,,,,,,,,,,,,,,,386.83966589998454,386.85186789999716,387.85248240013607,387.85248240013607,387.85248240013607,387.85248240013607,387.85248240013607,388.8523188000545,390.77116649993695,d,0,1.9160699001513422,None,409280,001,2024-11-25_20h39.38.476,PRIYANSHI.AU2220101_solo.project,2024.1.5,None,2024-11-25 20h39.49.757073 +0530,
150,f,,,,,5,1,26,3,390.7853640001267,,,,,,,,,,,,,,,390.77231599995866,390.7853640001267,391.7866583999712,391.7866583999712,391.7866583999712,391.7866583999712,391.7866583999712,392.7854869000148,393.75436770007946,g,0,0.9510537998285145,None,409280,001,2024-11-25_20h39.38.476,PRIYANSHI.AU2220101_solo.project,2024.1.5,None,2024-11-25 20h39.49.757073 +0530,
-150,s,,,,,5,2,27,1,393.76839610002935,,,,,,,,,,,,,,,393.7563410999719,393.76839610002935,394.768695600098,394.768695600098,394.768695600098,394.768695600098,394.768695600098,395.76973549998365,397.6699860000517,g,0,1.8888439999427646,None,409280,001,2024-11-25_20h39.38.476,PRIYANSHI.AU2220101_solo.project,2024.1.5,None,2024-11-25 20h39.49.757073 +0530,
-150,s,,,,,5,3,28,1,397.68540760013275,,,,,,,,,,,,,,,397.6716349001508,397.68540760013275,398.6687559999991,398.6687559999991,398.6687559999991,398.6687559999991,398.6852649000939,399.68560190009885,400.15447630011477,d,0,0.4635089999064803,None,409280,001,2024-11-25_20h39.38.476,PRIYANSHI.AU2220101_solo.project,2024.1.5,None,2024-11-25 20h39.49.757073 +0530,
150,f,,,,,5,4,29,3,400.16996420011856,,,,,,,,,,,,,,,400.1564788001124,400.16996420011856,401.16965680010617,401.16965680010617,401.16965680010617,401.16965680010617,401.16965680010617,402.1683455000166,402.25324969994836,a,0,0.07890950003638864,None,409280,001,2024-11-25_20h39.38.476,PRIYANSHI.AU2220101_solo.project,2024.1.5,None,2024-11-25 20h39.49.757073 +0530,
50,d,,,,,6,0,30,2,402.2683226999361,,,,,,,,,,,,,,,402.25476559996605,402.2683226999361,403.26941179996356,403.26941179996356,403.26941179996356,403.26941179996356,403.26941179996356,404.26936349994503,404.3044968000613,d,1,0.022552399896085262,None,409280,001,2024-11-25_20h39.38.476,PRIYANSHI.AU2220101_solo.project,2024.1.5,None,2024-11-25 20h39.49.757073 +0530,
60,g,,,,,6,1,31,4,404.3192302000243,,,,,,,,,,,,,,,404.30627930001356,404.3192302000243,405.3184452999849,405.3184452999849,405.3184452999849,405.3184452999849,405.3352381000295,406.31917989999056,407.2198059000075,f,0,0.8904887998942286,None,409280,001,2024-11-25_20h39.38.476,PRIYANSHI.AU2220101_solo.project,2024.1.5,None,2024-11-25 20h39.49.757073 +0530,
150,f,,,,,6,2,32,3,407.2355768000707,,,,,,,,,,,,,,,407.22115090000443,407.2355768000707,408.21894209994934,408.21894209994934,408.21894209994934,408.21894209994934,408.2359579000622,409.234804000007,409.63661670009606,a,0,0.3950189999304712,None,409280,001,2024-11-25_20h39.38.476,PRIYANSHI.AU2220101_solo.project,2024.1.5,None,2024-11-25 20h39.49.757073 +0530,
-150,s,,,,,6,3,33,1,409.65164740011096,,,,,,,,,,,,,,,409.6390212001279,409.65164740011096,410.6511306001339,410.6511306001339,410.6511306001339,410.6511306001339,410.6511306001339,411.6517463000491,412.32046109996736,f,0,0.6558769999537617,None,409280,001,2024-11-25_20h39.38.476,PRIYANSHI.AU2220101_solo.project,2024.1.5,None,2024-11-25 20h39.49.757073 +0530,
50,d,,,,,6,4,34,2,412.3350861000363,,,,,,,,,,,,,,,412.3224119001534,412.3350861000363,413.33539999998175,413.33539999998175,413.33539999998175,413.33539999998175,413.33539999998175,414.3356367999222,414.92163170012645,g,0,0.5771410998422652,None,409280,001,2024-11-25_20h39.38.476,PRIYANSHI.AU2220101_solo.project,2024.1.5,None,2024-11-25 20h39.49.757073 +0530,
60,g,,,,,7,0,35,4,414.9354030000977,,,,,,,,,,,,,,,414.9236701000482,414.9354030000977,415.9365567001514,415.9365567001514,415.9365567001514,415.9365567001514,415.9365567001514,416.93493050010875,418.27000980009325,a,0,1.3283803998492658,None,409280,001,2024-11-25_20h39.38.476,PRIYANSHI.AU2220101_solo.project,2024.1.5,None,2024-11-25 20h39.49.757073 +0530,
-50,a,,,,,7,1,36,0,418.28482630010694,,,,,,,,,,,,,,,418.27108350000344,418.28482630010694,419.2707712999545,419.2707712999545,419.2707712999545,419.2707712999545,419.2854468000587,420.28477209992707,422.25153280002996,g,0,1.9582316998858005,None,409280,001,2024-11-25_20h39.38.476,PRIYANSHI.AU2220101_solo.project,2024.1.5,None,2024-11-25 20h39.49.757073 +0530,
50,d,,,,,7,2,37,2,422.2678845000919,,,,,,,,,,,,,,,422.2530499000568,422.2678845000919,423.2525130000431,423.2525130000431,423.2525130000431,423.2525130000431,423.26840470009483,424.2514661999885,425.0537739000283,s,0,0.7847241000272334,None,409280,001,2024-11-25_20h39.38.476,PRIYANSHI.AU2220101_solo.project,2024.1.5,None,2024-11-25 20h39.49.757073 +0530,
150,f,,,,,7,3,38,3,425.0687365999911,,,,,,,,,,,,,,,425.0568113999907,425.0687365999911,426.06895689992234,426.06895689992234,426.06895689992234,426.06895689992234,426.06895689992234,427.06905049993657,427.4029645000119,a,0,0.32080530002713203,None,409280,001,2024-11-25_20h39.38.476,PRIYANSHI.AU2220101_solo.project,2024.1.5,None,2024-11-25 20h39.49.757073 +0530,
-150,s,,,,,7,4,39,1,427.41939779999666,,,,,,,,,,,,,,,427.404879800044,427.41939779999666,428.41812829999253,428.41812829999253,428.41812829999253,428.41812829999253,428.4344295000192,429.41832099994645,429.43563110008836,f,0,0.003133899997919798,None,409280,001,2024-11-25_20h39.38.476,PRIYANSHI.AU2220101_solo.project,2024.1.5,None,2024-11-25 20h39.49.757073 +0530,
-150,s,,,,,8,0,40,1,429.45133029995486,,,,,,,,,,,,,,,429.43654199992307,429.45133029995486,430.43510919995606,430.43510919995606,430.43510919995606,430.43510919995606,430.45159270009026,431.45147610013373,432.6191637001466,s,1,1.15292469994165,None,409280,001,2024-11-25_20h39.38.476,PRIYANSHI.AU2220101_solo.project,2024.1.5,None,2024-11-25 20h39.49.757073 +0530,
-50,a,,,,,8,1,41,0,432.63512880005874,,,,,,,,,,,,,,,432.6211336001288,432.63512880005874,433.63438910013065,433.63438910013065,433.63438910013065,433.63438910013065,433.63438910013065,434.63506900006905,435.63808470009826,a,1,0.9924686001613736,None,409280,001,2024-11-25_20h39.38.476,PRIYANSHI.AU2220101_solo.project,2024.1.5,None,2024-11-25 20h39.49.757073 +0530,
50,d,,,,,8,2,42,2,435.6519270001445,,,,,,,,,,,,,,,435.6411874999758,435.6519270001445,436.6509301001206,436.6509301001206,436.6509301001206,436.6509301001206,436.6509301001206,437.6511485001538,437.8187685001176,d,1,0.15512869996018708,None,409280,001,2024-11-25_20h39.38.476,PRIYANSHI.AU2220101_solo.project,2024.1.5,None,2024-11-25 20h39.49.757073 +0530,
50,d,,,,,8,3,43,2,437.83405090007,,,,,,,,,,,,,,,437.8195788001176,437.83405090007,438.81950520002283,438.81950520002283,438.81950520002283,438.81950520002283,438.8344414001331,439.834136800142,440.7852898000274,f,0,0.9386513999197632,None,409280,001,2024-11-25_20h39.38.476,PRIYANSHI.AU2220101_solo.project,2024.1.5,None,2024-11-25 20h39.49.757073 +0530,
150,f,,,,,8,4,44,3,440.8010895999614,,,,,,,,,,,,,,,440.7873532001395,440.8010895999614,441.801633000141,441.801633000141,441.801633000141,441.801633000141,441.801633000141,442.80122050014324,443.57029399997555,a,0,0.7664664001204073,None,409280,001,2024-11-25_20h39.38.476,PRIYANSHI.AU2220101_solo.project,2024.1.5,None,2024-11-25 20h39.49.757073 +0530,
-50,a,,,,,9,0,45,0,443.58379870001227,,,,,,,,,,,,,,,443.5726071000099,443.58379870001227,444.58416700013913,444.58416700013913,444.58416700013913,444.58416700013913,444.58416700013913,445.5844328000676,445.921198700089,d,0,0.3216317999176681,None,409280,001,2024-11-25_20h39.38.476,PRIYANSHI.AU2220101_solo.project,2024.1.5,None,2024-11-25 20h39.49.757073 +0530,
50,d,,,,,9,1,46,2,445.9348882001359,,,,,,,,,,,,,,,445.9233846999705,445.9348882001359,446.9349871999584,446.9349871999584,446.9349871999584,446.9349871999584,446.9349871999584,447.9350887001492,448.9543361000251,g,0,1.0158912998158485,None,409280,001,2024-11-25_20h39.38.476,PRIYANSHI.AU2220101_solo.project,2024.1.5,None,2024-11-25 20h39.49.757073 +0530,
60,g,,,,,9,2,47,4,448.9667175000068,,,,,,,,,,,,,,,448.9562031000387,448.9667175000068,449.9681075999979,449.9681075999979,449.9681075999979,449.9681075999979,449.9681075999979,450.9673558000941,451.50386649998836,d,0,0.5302830000873655,None,409280,001,2024-11-25_20h39.38.476,PRIYANSHI.AU2220101_solo.project,2024.1.5,None,2024-11-25 20h39.49.757073 +0530,
-150,s,,,,,9,3,48,1,451.5170625001192,,,,,,,,,,,,,,,451.50621449993923,451.5170625001192,452.517070800066,452.517070800066,452.517070800066,452.517070800066,452.517070800066,453.51837980002165,453.63621850009076,a,0,0.10914320009760559,None,409280,001,2024-11-25_20h39.38.476,PRIYANSHI.AU2220101_solo.project,2024.1.5,None,2024-11-25 20h39.49.757073 +0530,
-50,a,,,,,9,4,49,0,453.6510567001533,,,,,,,,,,,,,,,453.63723430014215,453.6510567001533,454.6513537999708,454.6513537999708,454.6513537999708,454.6513537999708,454.6513537999708,455.65022730012424,456.10247340006754,f,0,0.44327899999916553,None,409280,001,2024-11-25_20h39.38.476,PRIYANSHI.AU2220101_solo.project,2024.1.5,None,2024-11-25 20h39.49.757073 +0530,
60,g,,,,,10,0,50,4,456.1166821999941,,,,,,,,,,,,,,,456.10382420010865,456.1166821999941,457.1168639000971,457.1168639000971,457.1168639000971,457.1168639000971,457.1168639000971,458.1176380000543,458.4019464000594,f,0,0.27039540000259876,None,409280,001,2024-11-25_20h39.38.476,PRIYANSHI.AU2220101_solo.project,2024.1.5,None,2024-11-25 20h39.49.757073 +0530,
50,d,,,,,10,1,51,2,458.4169932999648,,,,,,,,,,,,,,,458.4032097000163,458.4169932999648,459.4172062999569,459.4172062999569,459.4172062999569,459.4172062999569,459.4172062999569,460.4165968000889,460.46854129992425,s,0,0.04219860001467168,None,409280,001,2024-11-25_20h39.38.476,PRIYANSHI.AU2220101_solo.project,2024.1.5,None,2024-11-25 20h39.49.757073 +0530,
-50,a,,,,,10,2,52,0,460.4844224001281,,,,,,,,,,,,,,,460.4696235000156,460.4844224001281,461.4678249999415,461.4678249999415,461.4678249999415,461.4678249999415,461.48412779998034,462.48388750012964,463.5675528999418,f,0,1.0741352001205087,None,409280,001,2024-11-25_20h39.38.476,PRIYANSHI.AU2220101_solo.project,2024.1.5,None,2024-11-25 20h39.49.757073 +0530,
-150,s,,,,,10,3,53,1,463.5840817000717,,,,,,,,,,,,,,,463.5686759999953,463.5840817000717,464.5673615001142,464.5673615001142,464.5673615001142,464.5673615001142,464.5839068000205,465.56779290013947,466.0704302000813,f,0,0.4928107000887394,None,409280,001,2024-11-25_20h39.38.476,PRIYANSHI.AU2220101_solo.project,2024.1.5,None,2024-11-25 20h39.49.757073 +0530,
150,f,,,,,10,4,54,3,466.08366780006327,,,,,,,,,,,,,,,466.0727987999562,466.08366780006327,467.08484939998016,467.08484939998016,467.08484939998016,467.08484939998016,467.08484939998016,468.083447500132,468.9184874999337,d,0,0.8259888000320643,None,409280,001,2024-11-25_20h39.38.476,PRIYANSHI.AU2220101_solo.project,2024.1.5,None,2024-11-25 20h39.49.757073 +0530,
-150,s,,,,,11,0,55,1,468.93327490007505,,,,,,,,,,,,,,,468.92056160001084,468.93327490007505,469.9345875000581,469.9345875000581,469.9345875000581,469.9345875000581,469.9345875000581,470.932924099965,471.836558500072,a,0,0.8844435000792146,None,409280,001,2024-11-25_20h39.38.476,PRIYANSHI.AU2220101_solo.project,2024.1.5,None,2024-11-25 20h39.49.757073 +0530,
150,f,,,,,11,1,56,3,471.85162580013275,,,,,,,,,,,,,,,471.83750110003166,471.85162580013275,472.850743399933,472.850743399933,472.850743399933,472.850743399933,472.850743399933,473.8508373000659,475.53529789997265,d,0,1.6780433999374509,None,409280,001,2024-11-25_20h39.38.476,PRIYANSHI.AU2220101_solo.project,2024.1.5,None,2024-11-25 20h39.49.757073 +0530,
60,g,,,,,11,2,57,4,475.5492322000209,,,,,,,,,,,,,,,475.53699819999747,475.5492322000209,476.55052109993994,476.55052109993994,476.55052109993994,476.55052109993994,476.55052109993994,477.54986519995145,478.28514220006764,g,1,0.7214999999850988,None,409280,001,2024-11-25_20h39.38.476,PRIYANSHI.AU2220101_solo.project,2024.1.5,None,2024-11-25 20h39.49.757073 +0530,
60,g,,,,,11,3,58,4,478.3001993999351,,,,,,,,,,,,,,,478.28712969995104,478.3001993999351,479.30215400015004,479.30215400015004,479.30215400015004,479.30215400015004,479.30215400015004,480.2993529001251,480.7032415000722,a,0,0.3937973999418318,None,409280,001,2024-11-25_20h39.38.476,PRIYANSHI.AU2220101_solo.project,2024.1.5,None,2024-11-25 20h39.49.757073 +0530,
-150,s,,,,,11,4,59,1,480.7170325999614,,,,,,,,,,,,,,,480.7051936001517,480.7170325999614,481.7174404999241,481.7174404999241,481.7174404999241,481.7174404999241,481.7174404999241,482.716544700088,483.0181595000904,f,0,None,None,409280,001,2024-11-25_20h39.38.476,PRIYANSHI.AU2220101_solo.project,2024.1.5,None,2024-11-25 20h39.49.757073 +0530,
-150,s,,,,,12,0,60,1,483.03276129998267,,,,,,,,,,,,,,,483.0206524000969,483.03276129998267,484.03270109998994,484.03270109998994,484.03270109998994,484.03270109998994,484.03270109998994,485.03435100009665,486.4180101000238,a,0,1.379357600118965,None,409280,001,2024-11-25_20h39.38.476,PRIYANSHI.AU2220101_solo.project,2024.1.5,None,2024-11-25 20h39.49.757073 +0530,
-50,a,,,,,12,1,61,0,486.43261409993283,,,,,,,,,,,,,,,486.41904489998706,486.43261409993283,487.4179694999475,487.4179694999475,487.4179694999475,487.4179694999475,487.4328819999937,488.43339719995856,489.2196033000946,s,0,0.777868099976331,None,409280,001,2024-11-25_20h39.38.476,PRIYANSHI.AU2220101_solo.project,2024.1.5,None,2024-11-25 20h39.49.757073 +0530,
150,f,,,,,12,2,62,3,489.23326959996484,,,,,,,,,,,,,,,489.22299350006506,489.23326959996484,490.2335213001352,490.2335213001352,490.2335213001352,490.2335213001352,490.2335213001352,491.2333124000579,492.46776259993203,g,0,1.2284361000638455,None,409280,001,2024-11-25_20h39.38.476,PRIYANSHI.AU2220101_solo.project,2024.1.5,None,2024-11-25 20h39.49.757073 +0530,
50,d,,,,,12,3,63,2,492.48268799996004,,,,,,,,,,,,,,,492.46935479994863,492.48268799996004,493.4843453001231,493.4843453001231,493.4843453001231,493.4843453001231,493.4843453001231,494.48259999998845,494.8845319999382,a,0,0.38991039991378784,None,409280,001,2024-11-25_20h39.38.476,PRIYANSHI.AU2220101_solo.project,2024.1.5,None,2024-11-25 20h39.49.757073 +0530,
150,f,,,,,12,4,64,3,494.89951290003955,,,,,,,,,,,,,,,494.88575770007446,494.89951290003955,495.89935280010104,495.89935280010104,495.89935280010104,495.89935280010104,495.89935280010104,496.8996139001101,497.38504320010543,d,0,0.47017029998824,None,409280,001,2024-11-25_20h39.38.476,PRIYANSHI.AU2220101_solo.project,2024.1.5,None,2024-11-25 20h39.49.757073 +0530,
50,d,,,,,13,0,65,2,497.40109990001656,,,,,,,,,,,,,,,497.3865984000731,497.40109990001656,498.4003441000823,498.4003441000823,498.4003441000823,498.4003441000823,498.4166711999569,499.3990794001147,499.8505361999851,s,0,0.4369338001124561,None,409280,001,2024-11-25_20h39.38.476,PRIYANSHI.AU2220101_solo.project,2024.1.5,None,2024-11-25 20h39.49.757073 +0530,
50,d,,,,,13,1,66,2,499.8668072000146,,,,,,,,,,,,,,,499.85215639998205,499.8668072000146,500.8667661999352,500.8667661999352,500.8667661999352,500.8667661999352,500.8667661999352,501.86643810011446,502.16871070000343,g,0,0.2853284999728203,None,409280,001,2024-11-25_20h39.38.476,PRIYANSHI.AU2220101_solo.project,2024.1.5,None,2024-11-25 20h39.49.757073 +0530,
150,f,,,,,13,2,67,3,502.183876800118,,,,,,,,,,,,,,,502.1708909000736,502.183876800118,503.1821121999528,503.1821121999528,503.1821121999528,503.1821121999528,503.19880290003493,504.1835018999409,504.9191729000304,a,0,0.7271571001037955,None,409280,001,2024-11-25_20h39.38.476,PRIYANSHI.AU2220101_solo.project,2024.1.5,None,2024-11-25 20h39.49.757073 +0530,
60,g,,,,,13,3,68,4,504.9324197000824,,,,,,,,,,,,,,,504.92140630003996,504.9324197000824,505.93465830013156,505.93465830013156,505.93465830013156,505.93465830013156,505.93465830013156,506.9326033999678,507.9025984001346,f,0,0.9588547002058476,None,409280,001,2024-11-25_20h39.38.476,PRIYANSHI.AU2220101_solo.project,2024.1.5,None,2024-11-25 20h39.49.757073 +0530,
60,g,,,,,13,4,69,4,507.9164776999969,,,,,,,,,,,,,,,507.9041598001495,507.9164776999969,508.9161430001259,508.9161430001259,508.9161430001259,508.9161430001259,508.9161430001259,509.91508900001645,511.28463450004347,f,0,1.3666708001401275,None,409280,001,2024-11-25_20h39.38.476,PRIYANSHI.AU2220101_solo.project,2024.1.5,None,2024-11-25 20h39.49.757073 +0530,
60,g,,,,,14,0,70,4,511.2994804000482,,,,,,,,,,,,,,,511.28638639999554,511.2994804000482,512.3000813000835,512.3000813000835,512.3000813000835,512.3000813000835,512.3000813000835,513.2998826999683,514.8835090000648,s,0,1.5724779998417944,None,409280,001,2024-11-25_20h39.38.476,PRIYANSHI.AU2220101_solo.project,2024.1.5,None,2024-11-25 20h39.49.757073 +0530,
60,g,,,,,14,1,71,4,514.8985713000875,,,,,,,,,,,,,,,514.8844204000197,514.8985713000875,515.8993951000739,515.8993951000739,515.8993951000739,515.8993951000739,515.8993951000739,516.8989250001032,518.3872712000739,d,0,1.480435400037095,None,409280,001,2024-11-25_20h39.38.476,PRIYANSHI.AU2220101_solo.project,2024.1.5,None,2024-11-25 20h39.49.757073 +0530,
-50,a,,,,,14,2,72,0,518.4019741001539,,,,,,,,,,,,,,,518.3885147001129,518.4019741001539,519.3991251999978,519.3991251999978,519.3991251999978,519.3991251999978,519.4155369999353,520.3995966999792,522.5837199001107,f,0,2.1693488999735564,None,409280,001,2024-11-25_20h39.38.476,PRIYANSHI.AU2220101_solo.project,2024.1.5,None,2024-11-25 20h39.49.757073 +0530,
-150,s,,,,,14,3,73,1,522.598859900143,,,,,,,,,,,,,,,522.5854285999667,522.598859900143,523.5998504001182,523.5998504001182,523.5998504001182,523.5998504001182,523.5998504001182,524.5823298001196,524.9668437000364,g,0,0.3726637999061495,None,409280,001,2024-11-25_20h39.38.476,PRIYANSHI.AU2220101_solo.project,2024.1.5,None,2024-11-25 20h39.49.757073 +0530,
150,f,,,,,14,4,74,3,524.9820834000129,,,,,,,,,,,,,,,524.968334000092,524.9820834000129,525.9651592001319,525.9651592001319,525.9651592001319,525.9651592001319,525.9819883001037,526.9816747000441,528.0016793000977,d,0,1.0104102999903262,None,409280,001,2024-11-25_20h39.38.476,PRIYANSHI.AU2220101_solo.project,2024.1.5,None,2024-11-25 20h39.49.757073 +0530,
50,d,,,,,15,0,75,2,528.0154119001236,,,,,,,,,,,,,,,528.0034098001197,528.0154119001236,529.0158949999604,529.0158949999604,529.0158949999604,529.0158949999604,529.0158949999604,530.01466970006,531.2328745000996,a,0,1.203309099888429,None,409280,001,2024-11-25_20h39.38.476,PRIYANSHI.AU2220101_solo.project,2024.1.5,None,2024-11-25 20h39.49.757073 +0530,
-50,a,,,,,15,1,76,0,531.2480411999859,,,,,,,,,,,,,,,531.2343314001337,531.2480411999859,532.2492389001418,532.2492389001418,532.2492389001418,532.2492389001418,532.2492389001418,533.2487262000795,534.2166778000537,d,0,0.9589539000298828,None,409280,001,2024-11-25_20h39.38.476,PRIYANSHI.AU2220101_solo.project,2024.1.5,None,2024-11-25 20h39.49.757073 +0530,
50,d,,,,,15,2,77,2,534.2317574999761,,,,,,,,,,,,,,,534.2180018001236,534.2317574999761,535.2314786999486,535.2314786999486,535.2314786999486,535.2314786999486,535.2314786999486,536.2318225000054,537.7490115000401,g,0,1.5097449000459164,None,409280,001,2024-11-25_20h39.38.476,PRIYANSHI.AU2220101_solo.project,2024.1.5,None,2024-11-25 20h39.49.757073 +0530,
150,f,,,,,15,3,78,3,537.7655863000546,,,,,,,,,,,,,,,537.7502886999864,537.7655863000546,538.7487091999501,538.7487091999501,538.7487091999501,538.7487091999501,538.7648939001374,539.7649914000649,541.1518761999905,d,0,1.3848571998532861,None,409280,001,2024-11-25_20h39.38.476,PRIYANSHI.AU2220101_solo.project,2024.1.5,None,2024-11-25 20h39.49.757073 +0530,
60,g,,,,,15,4,79,4,541.1653444999829,,,,,,,,,,,,,,,541.1533830000553,541.1653444999829,542.1646106999833,542.1646106999833,542.1646106999833,542.1646106999833,542.1646106999833,543.1641941000707,544.4167122000363,s,0,1.2372834999114275,None,409280,001,2024-11-25_20h39.38.476,PRIYANSHI.AU2220101_solo.project,2024.1.5,None,2024-11-25 20h39.49.757073 +0530,
-50,a,,,,,16,0,80,0,544.4321373000275,,,,,,,,,,,,,,,544.4185395999812,544.4321373000275,545.4311288001481,545.4311288001481,545.4311288001481,545.4311288001481,545.4311288001481,546.4311412000097,547.9839951000176,f,0,1.538029600167647,None,409280,001,2024-11-25_20h39.38.476,PRIYANSHI.AU2220101_solo.project,2024.1.5,None,2024-11-25 20h39.49.757073 +0530,
-150,s,,,,,16,1,81,1,547.9991081999615,,,,,,,,,,,,,,,547.9855546001345,547.9991081999615,548.9988589999266,548.9988589999266,548.9988589999266,548.9988589999266,548.9988589999266,549.9975487000775,550.1652747001499,a,0,0.15860560000874102,None,409280,001,2024-11-25_20h39.38.476,PRIYANSHI.AU2220101_solo.project,2024.1.5,None,2024-11-25 20h39.49.757073 +0530,
50,d,,,,,16,2,82,2,550.181258500088,,,,,,,,,,,,,,,550.1668758001179,550.181258500088,551.181431800127,551.181431800127,551.181431800127,551.181431800127,551.181431800127,552.1814369000494,552.3675154000521,d,1,0.1784481001086533,None,409280,001,2024-11-25_20h39.38.476,PRIYANSHI.AU2220101_solo.project,2024.1.5,None,2024-11-25 20h39.49.757073 +0530,
150,f,,,,,16,3,83,3,552.3810827000998,,,,,,,,,,,,,,,552.3695132001303,552.3810827000998,553.3810487999581,553.3810487999581,553.3810487999581,553.3810487999581,553.3810487999581,554.3815723999869,556.4142525999341,a,0,2.021876199869439,None,409280,001,2024-11-25_20h39.38.476,PRIYANSHI.AU2220101_solo.project,2024.1.5,None,2024-11-25 20h39.49.757073 +0530,
60,g,,,,,16,4,84,4,556.430584799964,,,,,,,,,,,,,,,556.4153176001273,556.430584799964,557.4141502000857,557.4141502000857,557.4141502000857,557.4141502000857,557.4314790000208,558.4144248000812,559.1838575000875,f,0,0.7668326001148671,None,409280,001,2024-11-25_20h39.38.476,PRIYANSHI.AU2220101_solo.project,2024.1.5,None,2024-11-25 20h39.49.757073 +0530,
50,d,,,,,17,0,85,2,559.198056000052,,,,,,,,,,,,,,,559.1848480000626,559.198056000052,560.1809573001228,560.1809573001228,560.1809573001228,560.1809573001228,560.1974474999588,561.1988326001447,561.4516921001486,f,0,0.250054000178352,None,409280,001,2024-11-25_20h39.38.476,PRIYANSHI.AU2220101_solo.project,2024.1.5,None,2024-11-25 20h39.49.757073 +0530,
150,f,,,,,17,1,86,3,561.4636924001388,,,,,,,,,,,,,,,561.4528173999861,561.4636924001388,562.4643933000043,562.4643933000043,562.4643933000043,562.4643933000043,562.4643933000043,563.4645227000583,564.4177459001075,f,1,0.9466390998568386,None,409280,001,2024-11-25_20h39.38.476,PRIYANSHI.AU2220101_solo.project,2024.1.5,None,2024-11-25 20h39.49.757073 +0530,
-50,a,,,,,17,2,87,0,564.430243199924,,,,,,,,,,,,,,,564.4198519000784,564.430243199924,565.4320630000439,565.4320630000439,565.4320630000439,565.4320630000439,565.4320630000439,566.4317576000467,566.6339143000077,d,0,0.18726360006257892,None,409280,001,2024-11-25_20h39.38.476,PRIYANSHI.AU2220101_solo.project,2024.1.5,None,2024-11-25 20h39.49.757073 +0530,
-150,s,,,,,17,3,88,1,566.6492487001233,,,,,,,,,,,,,,,566.635874300031,566.6492487001233,567.647781000007,567.647781000007,567.647781000007,567.647781000007,567.6643614000641,568.6473096001428,569.2994000001345,s,1,0.6463008001446724,None,409280,001,2024-11-25_20h39.38.476,PRIYANSHI.AU2220101_solo.project,2024.1.5,None,2024-11-25 20h39.49.757073 +0530,
-150,s,,,,,17,4,89,1,569.3138327000197,,,,,,,,,,,,,,,569.3014229000546,569.3138327000197,570.3146865000017,570.3146865000017,570.3146865000017,570.3146865000017,570.3146865000017,571.3142377000768,571.6324728000909,s,1,0.3064196000341326,None,409280,001,2024-11-25_20h39.38.476,PRIYANSHI.AU2220101_solo.project,2024.1.5,None,2024-11-25 20h39.49.757073 +0530,
50,d,,,,,18,0,90,2,571.6475704000331,,,,,,,,,,,,,,,571.6336087000091,571.6475704000331,572.6469908999279,572.6469908999279,572.6469908999279,572.6469908999279,572.6469908999279,573.6472132999916,573.7834934000857,d,1,0.13332070014439523,None,409280,001,2024-11-25_20h39.38.476,PRIYANSHI.AU2220101_solo.project,2024.1.5,None,2024-11-25 20h39.49.757073 +0530,
60,g,,,,,18,1,91,4,573.7976073001046,,,,,,,,,,,,,,,573.7847116999328,573.7976073001046,574.7977213999256,574.7977213999256,574.7977213999256,574.7977213999256,574.7977213999256,575.7967729999218,577.2823147000745,f,0,1.4708468997851014,None,409280,001,2024-11-25_20h39.38.476,PRIYANSHI.AU2220101_solo.project,2024.1.5,None,2024-11-25 20h39.49.757073 +0530,
50,d,,,,,18,2,92,2,577.2972921000328,,,,,,,,,,,,,,,577.2833124001045,577.2972921000328,578.2817174999509,578.2817174999509,578.2817174999509,578.2817174999509,578.2979711999651,579.2967185999732,579.3168806999456,f,0,0.014758399920538068,None,409280,001,2024-11-25_20h39.38.476,PRIYANSHI.AU2220101_solo.project,2024.1.5,None,2024-11-25 20h39.49.757073 +0530,
60,g,,,,,18,3,93,4,579.330473100068,,,,,,,,,,,,,,,579.3192297001369,579.330473100068,580.3299641001504,580.3299641001504,580.3299641001504,580.3299641001504,580.3299641001504,581.3304560999386,581.548750899965,d,0,0.214994499925524,None,409280,001,2024-11-25_20h39.38.476,PRIYANSHI.AU2220101_solo.project,2024.1.5,None,2024-11-25 20h39.49.757073 +0530,
-150,s,,,,,18,4,94,1,581.5638809001539,,,,,,,,,,,,,,,581.550603199983,581.5638809001539,582.5632520001382,582.5632520001382,582.5632520001382,582.5632520001382,582.5632520001382,583.5633574000094,583.6322492000181,s,1,0.05375600000843406,None,409280,001,2024-11-25_20h39.38.476,PRIYANSHI.AU2220101_solo.project,2024.1.5,None,2024-11-25 20h39.49.757073 +0530,
-50,a,,,,,19,0,95,0,583.6464697001502,,,,,,,,,,,,,,,583.6341868001036,583.6464697001502,584.6480128001422,584.6480128001422,584.6480128001422,584.6480128001422,584.6480128001422,585.6467882001307,586.3813779000193,g,0,0.7194730001501739,None,409280,001,2024-11-25_20h39.38.476,PRIYANSHI.AU2220101_solo.project,2024.1.5,None,2024-11-25 20h39.49.757073 +0530,
-150,s,,,,,19,1,96,1,586.3965851000976,,,,,,,,,,,,,,,586.3829781000968,586.3965851000976,587.3969801000785,587.3969801000785,587.3969801000785,587.3969801000785,587.3969801000785,588.3963647000492,588.9151570000686,f,0,0.5042015998624265,None,409280,001,2024-11-25_20h39.38.476,PRIYANSHI.AU2220101_solo.project,2024.1.5,None,2024-11-25 20h39.49.757073 +0530,
50,d,,,,,19,2,97,2,588.9296933999285,,,,,,,,,,,,,,,588.9167202999815,588.9296933999285,589.9300214000978,589.9300214000978,589.9300214000978,589.9300214000978,589.9300214000978,590.9295970001258,591.6310666000936,d,1,0.693144700024277,None,409280,001,2024-11-25_20h39.38.476,PRIYANSHI.AU2220101_solo.project,2024.1.5,None,2024-11-25 20h39.49.757073 +0530,
-50,a,,,,,19,3,98,0,591.6463244000915,,,,,,,,,,,,,,,591.6322336001322,591.6463244000915,592.64620930003,592.64620930003,592.64620930003,592.64620930003,592.64620930003,593.630415200023,594.2992736999877,s,0,0.664017700124532,None,409280,001,2024-11-25_20h39.38.476,PRIYANSHI.AU2220101_solo.project,2024.1.5,None,2024-11-25 20h39.49.757073 +0530,
60,g,,,,,19,4,99,4,594.3126614999492,,,,,,,,,,,,,,,594.3006384000182,594.3126614999492,595.3131445001345,595.3131445001345,595.3131445001345,595.3131445001345,595.3131445001345,596.3132505000103,597.1995037000161,d,0,0.8713104999624193,None,409280,001,2024-11-25_20h39.38.476,PRIYANSHI.AU2220101_solo.project,2024.1.5,None,2024-11-25 20h39.49.757073 +0530,
