pos,corr_resp,trials.thisRepN,trials.thisTrialN,trials.thisN,trials.thisIndex,trials_2.thisRepN,trials_2.thisTrialN,trials_2.thisN,trials_2.thisIndex,thisRow.t,notes,trial.started,fixciation.started,fixciation_2.started,fixciation_3.started,fixciation_4.started,fixciation.stopped,key_resp.started,trial.stopped,key_resp.keys,key_resp.corr,key_resp.rt,key_resp.duration,feeback.started,text.started,feeback.stopped,test.started,stimulus.started,stimulus_2.started,stimulus_3.started,stimulus_4.started,stimulus.stopped,key_resp_2.started,test.stopped,key_resp_2.keys,key_resp_2.corr,key_resp_2.rt,key_resp_2.duration,participant,session,date,expName,psychopyVersion,frameRate,expStart,
-50,a,0,0,0,0,,,,,0.1749566998332739,,0.052382499910891056,0.1749566998332739,1.0255928998813033,1.0255928998813033,1.0255928998813033,1.1757495999336243,2.0092467998620123,4.194432099815458,s,0,2.177605500211939,None,,,,,,,,,,,,,,,,414473,001,2024-11-24_15h33.46.662,PRIYANSHI.AU2220101_solo.project,2024.1.5,None,2024-11-24 15h33.56.781411 +0530,
-150,s,0,1,1,1,,,,,4.2134881999809295,,4.207982299849391,4.2134881999809295,5.208888399880379,5.208888399880379,5.208888399880379,5.226110099814832,6.21012319996953,6.943661899771541,d,0,0.7227500001899898,None,,,,,,,,,,,,,,,,414473,001,2024-11-24_15h33.46.662,PRIYANSHI.AU2220101_solo.project,2024.1.5,None,2024-11-24 15h33.56.781411 +0530,
50,d,0,2,2,2,,,,,6.959640899905935,,6.945167699828744,6.959640899905935,7.96009279997088,7.96009279997088,7.96009279997088,7.96009279997088,8.95896749990061,9.36421939986758,a,0,0.38986589992418885,None,,,,,,,,,,,,,,,,414473,001,2024-11-24_15h33.46.662,PRIYANSHI.AU2220101_solo.project,2024.1.5,None,2024-11-24 15h33.56.781411 +0530,
-50,a,1,0,3,0,,,,,9.375569899799302,,9.366262099938467,9.375569899799302,10.375507099786773,10.375507099786773,10.375507099786773,10.375507099786773,11.376773199997842,11.71111789997667,s,0,0.32938720006495714,None,,,,,,,,,,,,,,,,414473,001,2024-11-24_15h33.46.662,PRIYANSHI.AU2220101_solo.project,2024.1.5,None,2024-11-24 15h33.56.781411 +0530,
-150,s,1,1,4,1,,,,,11.725645399885252,,11.71216129977256,11.725645399885252,12.725913899950683,12.725913899950683,12.725913899950683,12.725913899950683,13.725652999943122,14.143929699901491,d,0,0.40618059993721545,None,,,,,,,,,,,,,,,,414473,001,2024-11-24_15h33.46.662,PRIYANSHI.AU2220101_solo.project,2024.1.5,None,2024-11-24 15h33.56.781411 +0530,
50,d,1,2,5,2,,,,,14.158230499830097,,14.14559829980135,14.158230499830097,15.159248099895194,15.159248099895194,15.159248099895194,15.159248099895194,16.159182999981567,16.24389549996704,a,0,0.07185829989612103,None,,,,,,,,,,,,,,,,414473,001,2024-11-24_15h33.46.662,PRIYANSHI.AU2220101_solo.project,2024.1.5,None,2024-11-24 15h33.56.781411 +0530,
-50,a,2,0,6,0,,,,,16.258968599839136,,16.244814899982885,16.258968599839136,17.2594258999452,17.2594258999452,17.2594258999452,17.2594258999452,18.258630799828097,19.577098099980503,s,0,1.3047253000549972,None,,,,,,,,,,,,,,,,414473,001,2024-11-24_15h33.46.662,PRIYANSHI.AU2220101_solo.project,2024.1.5,None,2024-11-24 15h33.56.781411 +0530,
-150,s,2,1,7,1,,,,,19.592581099830568,,19.579025499988347,19.592581099830568,20.594187499955297,20.594187499955297,20.594187499955297,20.594187499955297,21.592648199992254,23.74357289983891,d,0,2.143625400029123,None,,,,,,,,,,,,,,,,414473,001,2024-11-24_15h33.46.662,PRIYANSHI.AU2220101_solo.project,2024.1.5,None,2024-11-24 15h33.56.781411 +0530,
50,d,2,2,8,2,,,,,23.759084799792618,,23.7451009999495,23.759084799792618,24.758760700002313,24.758760700002313,24.758760700002313,24.758760700002313,25.76005159993656,27.779889299999923,a,0,2.015909600071609,None,,,,,,,,,,,,,,,,414473,001,2024-11-24_15h33.46.662,PRIYANSHI.AU2220101_solo.project,2024.1.5,None,2024-11-24 15h33.56.781411 +0530,
-50,a,3,0,9,0,,,,,27.791960899950936,,27.78157199989073,27.791960899950936,28.79241309990175,28.79241309990175,28.79241309990175,28.79241309990175,29.792468699859455,30.294659699779004,s,0,0.4930520001798868,None,,,,,,,,,,,,,,,,414473,001,2024-11-24_15h33.46.662,PRIYANSHI.AU2220101_solo.project,2024.1.5,None,2024-11-24 15h33.56.781411 +0530,
-150,s,3,1,10,1,,,,,30.307800499955192,,30.296154099982232,30.307800499955192,31.309172799810767,31.309172799810767,31.309172799810767,31.309172799810767,32.3091724999249,32.4094089998398,d,0,0.0915204999037087,None,,,,,,,,,,,,,,,,414473,001,2024-11-24_15h33.46.662,PRIYANSHI.AU2220101_solo.project,2024.1.5,None,2024-11-24 15h33.56.781411 +0530,
50,d,3,2,11,2,,,,,32.42481489991769,,32.41163589991629,32.42481489991769,33.42531799990684,33.42531799990684,33.42531799990684,33.42531799990684,34.42500039981678,36.67838289984502,s,0,2.240690700011328,None,,,,,,,,,,,,,,,,414473,001,2024-11-24_15h33.46.662,PRIYANSHI.AU2220101_solo.project,2024.1.5,None,2024-11-24 15h33.56.781411 +0530,
-50,a,4,0,12,0,,,,,36.69426649995148,,36.67936099995859,36.69426649995148,37.691627299878746,37.691627299878746,37.691627299878746,37.70827369997278,38.691518999869004,41.559123899787664,d,0,2.853559600189328,None,,,,,,,,,,,,,,,,414473,001,2024-11-24_15h33.46.662,PRIYANSHI.AU2220101_solo.project,2024.1.5,None,2024-11-24 15h33.56.781411 +0530,
-150,s,4,1,13,1,,,,,41.57503099995665,,41.56036709994078,41.57503099995665,42.57507099979557,42.57507099979557,42.57507099979557,42.57507099979557,43.5748998997733,45.7743517998606,a,0,2.1896035000681877,None,,,,,,,,,,,,,,,,414473,001,2024-11-24_15h33.46.662,PRIYANSHI.AU2220101_solo.project,2024.1.5,None,2024-11-24 15h33.56.781411 +0530,
50,d,4,2,14,2,,,,,45.79110369994305,,45.775336699793115,45.79110369994305,46.77503069979139,46.77503069979139,46.77503069979139,46.79201169987209,47.77503059990704,50.19646679982543,s,0,2.4064553999342024,None,,,,,,,,,,,,,,,,414473,001,2024-11-24_15h33.46.662,PRIYANSHI.AU2220101_solo.project,2024.1.5,None,2024-11-24 15h33.56.781411 +0530,
-50,a,5,0,15,0,,,,,50.207607299787924,,50.1971946998965,50.207607299787924,51.208608499960974,51.208608499960974,51.208608499960974,51.208608499960974,52.208404699806124,53.15939849987626,d,0,0.9464553999714553,None,,,,,,,,,,,,,,,,414473,001,2024-11-24_15h33.46.662,PRIYANSHI.AU2220101_solo.project,2024.1.5,None,2024-11-24 15h33.56.781411 +0530,
-150,s,5,1,16,1,,,,,53.174762999871746,,53.16024199989624,53.174762999871746,54.15850649983622,54.15850649983622,54.15850649983622,54.174653799971566,55.17446149978787,56.47618589992635,a,0,1.2858984998892993,None,,,,,,,,,,,,,,,,414473,001,2024-11-24_15h33.46.662,PRIYANSHI.AU2220101_solo.project,2024.1.5,None,2024-11-24 15h33.56.781411 +0530,
50,d,5,2,17,2,,,,,56.4935291998554,,56.47727009980008,56.4935291998554,57.49111509998329,57.49111509998329,57.49111509998329,57.50760079990141,58.490284599829465,58.925932499812916,s,0,0.4223227999173105,None,,,,,,,,,,,,,,,,414473,001,2024-11-24_15h33.46.662,PRIYANSHI.AU2220101_solo.project,2024.1.5,None,2024-11-24 15h33.56.781411 +0530,
-50,a,6,0,18,0,,,,,58.94169099978171,,58.92708059982397,58.94169099978171,59.94099229993299,59.94099229993299,59.94099229993299,59.94099229993299,60.94036959996447,60.97562209982425,d,0,0.020831800065934658,None,,,,,,,,,,,,,,,,414473,001,2024-11-24_15h33.46.662,PRIYANSHI.AU2220101_solo.project,2024.1.5,None,2024-11-24 15h33.56.781411 +0530,
-150,s,6,1,19,1,,,,,60.991351099917665,,60.977957299910486,60.991351099917665,61.99267509998754,61.99267509998754,61.99267509998754,61.99267509998754,62.99127639993094,63.91095499997027,a,0,0.9109837000723928,None,,,,,,,,,,,,,,,,414473,001,2024-11-24_15h33.46.662,PRIYANSHI.AU2220101_solo.project,2024.1.5,None,2024-11-24 15h33.56.781411 +0530,
50,d,6,2,20,2,,,,,63.9244352998212,,63.911864299792796,63.9244352998212,64.92474239994772,64.92474239994772,64.92474239994772,64.92474239994772,65.92372069996782,66.29165789997205,s,0,0.35242390003986657,None,,,,,,,,,,,,,,,,414473,001,2024-11-24_15h33.46.662,PRIYANSHI.AU2220101_solo.project,2024.1.5,None,2024-11-24 15h33.56.781411 +0530,
-50,a,7,0,21,0,,,,,66.30700249993242,,66.29268629988655,66.30700249993242,67.29177679982968,67.29177679982968,67.29177679982968,67.30779639980756,68.29080789978616,70.55991659988649,d,0,2.2559144000988454,None,,,,,,,,,,,,,,,,414473,001,2024-11-24_15h33.46.662,PRIYANSHI.AU2220101_solo.project,2024.1.5,None,2024-11-24 15h33.56.781411 +0530,
-150,s,7,1,22,1,,,,,70.57340909983031,,70.5607977998443,70.57340909983031,71.57486649998464,71.57486649998464,71.57486649998464,71.57486649998464,72.57437959988602,72.90988229983486,a,0,0.3282658997923136,None,,,,,,,,,,,,,,,,414473,001,2024-11-24_15h33.46.662,PRIYANSHI.AU2220101_solo.project,2024.1.5,None,2024-11-24 15h33.56.781411 +0530,
50,d,7,2,23,2,,,,,72.92346469988115,,72.91177929984406,72.92346469988115,73.92356449994259,73.92356449994259,73.92356449994259,73.92356449994259,74.92434409982525,74.99203949980438,s,0,0.0575248000677675,None,,,,,,,,,,,,,,,,414473,001,2024-11-24_15h33.46.662,PRIYANSHI.AU2220101_solo.project,2024.1.5,None,2024-11-24 15h33.56.781411 +0530,
-50,a,8,0,24,0,,,,,75.01019679987803,,74.99304599990137,75.01019679987803,75.99121529981494,75.99121529981494,75.99121529981494,76.02483009989373,77.00750889978372,77.30839849985205,d,0,0.28575229994021356,None,,,,,,,,,,,,,,,,414473,001,2024-11-24_15h33.46.662,PRIYANSHI.AU2220101_solo.project,2024.1.5,None,2024-11-24 15h33.56.781411 +0530,
-150,s,8,1,25,1,,,,,77.32364889979362,,77.30946529982612,77.32364889979362,78.30818699998781,78.30818699998781,78.30818699998781,78.32427689991891,79.32423149980605,82.10907759983093,a,0,2.7798476999159902,None,,,,,,,,,,,,,,,,414473,001,2024-11-24_15h33.46.662,PRIYANSHI.AU2220101_solo.project,2024.1.5,None,2024-11-24 15h33.56.781411 +0530,
50,d,8,2,26,2,,,,,82.12377879978158,,82.10993799986318,82.12377879978158,83.12398219993338,83.12398219993338,83.12398219993338,83.12398219993338,84.12424869998358,85.07605479983613,s,0,0.9473160000052303,None,,,,,,,,,,,,,,,,414473,001,2024-11-24_15h33.46.662,PRIYANSHI.AU2220101_solo.project,2024.1.5,None,2024-11-24 15h33.56.781411 +0530,
-50,a,9,0,27,0,,,,,85.09266999992542,,85.07772039994597,85.09266999992542,86.0900620999746,86.0900620999746,86.0900620999746,86.10725019988604,87.0904309998732,87.89370559994131,d,0,0.7975729000754654,None,,,,,,,,,,,,,,,,414473,001,2024-11-24_15h33.46.662,PRIYANSHI.AU2220101_solo.project,2024.1.5,None,2024-11-24 15h33.56.781411 +0530,
-150,s,9,1,28,1,,,,,87.90689449990168,,87.89570079999976,87.90689449990168,88.9076198998373,88.9076198998373,88.9076198998373,88.9076198998373,89.9079875999596,90.92448699986562,s,1,1.0053592000622302,None,,,,,,,,,,,,,,,,414473,001,2024-11-24_15h33.46.662,PRIYANSHI.AU2220101_solo.project,2024.1.5,None,2024-11-24 15h33.56.781411 +0530,
50,d,9,2,29,2,,,,,90.93978469981812,,90.92540889978409,90.93978469981812,91.92489569983445,91.92489569983445,91.92489569983445,91.9410656997934,92.94065019977279,93.59137219982222,a,0,0.6456325000617653,None,,,,,,,,,,,,,,,,414473,001,2024-11-24_15h33.46.662,PRIYANSHI.AU2220101_solo.project,2024.1.5,None,2024-11-24 15h33.56.781411 +0530,
-50,a,10,0,30,0,,,,,93.60773839987814,,93.59241559985094,93.60773839987814,94.60706489998847,94.60706489998847,94.60706489998847,94.62433859985322,95.60673819994554,97.67960759997368,d,0,2.0650690998882055,None,,,,,,,,,,,,,,,,414473,001,2024-11-24_15h33.46.662,PRIYANSHI.AU2220101_solo.project,2024.1.5,None,2024-11-24 15h33.56.781411 +0530,
-150,s,10,1,31,1,,,,,97.69153309985995,,97.6817546999082,97.69153309985995,98.6915616998449,98.6915616998449,98.6915616998449,98.6915616998449,99.69085459993221,99.74128179997206,a,0,0.037454399978742,None,,,,,,,,,,,,,,,,414473,001,2024-11-24_15h33.46.662,PRIYANSHI.AU2220101_solo.project,2024.1.5,None,2024-11-24 15h33.56.781411 +0530,
50,d,10,2,32,2,,,,,99.76060089981183,,99.74281889991835,99.76060089981183,100.75677839992568,100.75677839992568,100.75677839992568,100.77357549988665,101.75686589977704,103.10920999990776,s,0,1.3474377000238746,None,,,,,,,,,,,,,,,,414473,001,2024-11-24_15h33.46.662,PRIYANSHI.AU2220101_solo.project,2024.1.5,None,2024-11-24 15h33.56.781411 +0530,
-50,a,11,0,33,0,,,,,103.12317809998058,,103.11029919981956,103.12317809998058,104.12362359999679,104.12362359999679,104.12362359999679,104.12362359999679,105.1234467998147,105.84202779992484,d,0,0.7096592001616955,None,,,,,,,,,,,,,,,,414473,001,2024-11-24_15h33.46.662,PRIYANSHI.AU2220101_solo.project,2024.1.5,None,2024-11-24 15h33.56.781411 +0530,
-150,s,11,1,34,1,,,,,105.85635229991749,,105.84291519992985,105.85635229991749,106.85729939979501,106.85729939979501,106.85729939979501,106.85729939979501,107.85769329988398,108.49297489994206,a,0,0.6207769999746233,None,,,,,,,,,,,,,,,,414473,001,2024-11-24_15h33.46.662,PRIYANSHI.AU2220101_solo.project,2024.1.5,None,2024-11-24 15h33.56.781411 +0530,
50,d,11,2,35,2,,,,,108.50660609989427,,108.49518489977345,108.50660609989427,109.50623169983737,109.50623169983737,109.50623169983737,109.50623169983737,110.50610549980775,110.5919861998409,s,0,0.0800057000014931,None,,,,,,,,,,,,,,,,414473,001,2024-11-24_15h33.46.662,PRIYANSHI.AU2220101_solo.project,2024.1.5,None,2024-11-24 15h33.56.781411 +0530,
-50,a,12,0,36,0,,,,,110.60581319988705,,110.59303739992902,110.60581319988705,111.60706819989718,111.60706819989718,111.60706819989718,111.60706819989718,112.60655819997191,112.64174359990284,d,0,0.018579799914732575,None,,,,,,,,,,,,,,,,414473,001,2024-11-24_15h33.46.662,PRIYANSHI.AU2220101_solo.project,2024.1.5,None,2024-11-24 15h33.56.781411 +0530,
-150,s,12,1,37,1,,,,,112.65672439988703,,112.64395199995488,112.65672439988703,113.6564305999782,113.6564305999782,113.6564305999782,113.6564305999782,114.65603739977814,114.89165059989318,a,0,0.23295079986564815,None,,,,,,,,,,,,,,,,414473,001,2024-11-24_15h33.46.662,PRIYANSHI.AU2220101_solo.project,2024.1.5,None,2024-11-24 15h33.56.781411 +0530,
50,d,12,2,38,2,,,,,114.90647369995713,,114.8923043999821,114.90647369995713,115.90734389983118,115.90734389983118,115.90734389983118,115.90734389983118,116.90696099982597,117.42705719987862,s,0,0.503592099994421,None,,,,,,,,,,,,,,,,414473,001,2024-11-24_15h33.46.662,PRIYANSHI.AU2220101_solo.project,2024.1.5,None,2024-11-24 15h33.56.781411 +0530,
-50,a,13,0,39,0,,,,,117.43913669977337,,117.42890899977647,117.43913669977337,118.4406915998552,118.4406915998552,118.4406915998552,118.4406915998552,119.43971889978275,121.59129239991307,a,1,2.14927150006406,None,,,,,,,,,,,,,,,,414473,001,2024-11-24_15h33.46.662,PRIYANSHI.AU2220101_solo.project,2024.1.5,None,2024-11-24 15h33.56.781411 +0530,
-150,s,13,1,40,1,,,,,121.60572659992613,,121.59278219984844,121.60572659992613,122.60584489977919,122.60584489977919,122.60584489977919,122.60584489977919,123.60641209990717,124.37479679984972,s,1,0.7645520998630673,None,,,,,,,,,,,,,,,,414473,001,2024-11-24_15h33.46.662,PRIYANSHI.AU2220101_solo.project,2024.1.5,None,2024-11-24 15h33.56.781411 +0530,
50,d,13,2,41,2,,,,,124.3920367998071,,124.37581809982657,124.3920367998071,125.38937599980272,125.38937599980272,125.38937599980272,125.40583399985917,126.38907189993188,127.70769449998625,s,0,1.302568200044334,None,,,,,,,,,,,,,,,,414473,001,2024-11-24_15h33.46.662,PRIYANSHI.AU2220101_solo.project,2024.1.5,None,2024-11-24 15h33.56.781411 +0530,
-50,a,14,0,42,0,,,,,127.72391839977354,,127.70864579989575,127.72391839977354,128.7238491999451,128.7238491999451,128.7238491999451,128.7238491999451,129.72203589999117,131.34114679996856,a,1,1.6162111000157893,None,,,,,,,,,,,,,,,,414473,001,2024-11-24_15h33.46.662,PRIYANSHI.AU2220101_solo.project,2024.1.5,None,2024-11-24 15h33.56.781411 +0530,
-150,s,14,1,43,1,,,,,131.35578389978036,,131.3426003998611,131.35578389978036,132.35609589982778,132.35609589982778,132.35609589982778,132.35609589982778,133.3554875999689,134.07341709989123,s,1,0.7083441000431776,None,,,,,,,,,,,,,,,,414473,001,2024-11-24_15h33.46.662,PRIYANSHI.AU2220101_solo.project,2024.1.5,None,2024-11-24 15h33.56.781411 +0530,
50,d,14,2,44,2,,,,,134.08869099989533,,134.07536479993723,134.08869099989533,135.08899239986204,135.08899239986204,135.08899239986204,135.08899239986204,136.08914009993896,136.40752529981546,s,0,0.31146330013871193,None,,,,,,,,,,,,,,,,414473,001,2024-11-24_15h33.46.662,PRIYANSHI.AU2220101_solo.project,2024.1.5,None,2024-11-24 15h33.56.781411 +0530,
-50,a,15,0,45,0,,,,,136.423047499964,,136.40925529995002,136.423047499964,137.4229819998145,137.4229819998145,137.4229819998145,137.4229819998145,138.42246859986335,139.12535379990004,a,1,0.6974284001626074,None,,,,,,,,,,,,,,,,414473,001,2024-11-24_15h33.46.662,PRIYANSHI.AU2220101_solo.project,2024.1.5,None,2024-11-24 15h33.56.781411 +0530,
-150,s,15,1,46,1,,,,,139.13871649978682,,139.12721329997294,139.13871649978682,140.1390311999712,140.1390311999712,140.1390311999712,140.1390311999712,141.13953099981882,141.75623049982823,d,0,0.6090946001932025,None,,,,,,,,,,,,,,,,414473,001,2024-11-24_15h33.46.662,PRIYANSHI.AU2220101_solo.project,2024.1.5,None,2024-11-24 15h33.56.781411 +0530,
50,d,15,2,47,2,,,,,141.7717533998657,,141.75814449996687,141.7717533998657,142.77168789994903,142.77168789994903,142.77168789994903,142.77168789994903,143.77270370000042,145.52339809993282,d,1,1.7435632001142949,None,,,,,,,,,,,,,,,,414473,001,2024-11-24_15h33.46.662,PRIYANSHI.AU2220101_solo.project,2024.1.5,None,2024-11-24 15h33.56.781411 +0530,
-50,a,16,0,48,0,,,,,145.53901119995862,,145.52484239987098,145.53901119995862,146.53835239983164,146.53835239983164,146.53835239983164,146.53835239983164,147.53858649986796,149.25721849990077,a,1,1.7117329998873174,None,,,,,,,,,,,,,,,,414473,001,2024-11-24_15h33.46.662,PRIYANSHI.AU2220101_solo.project,2024.1.5,None,2024-11-24 15h33.56.781411 +0530,
-150,s,16,1,49,1,,,,,149.27195299998857,,149.25869469996542,149.27195299998857,150.27216109982692,150.27216109982692,150.27216109982692,150.27216109982692,151.2726456997916,152.20848169992678,s,1,0.9307489998172969,None,,,,,,,,,,,,,,,,414473,001,2024-11-24_15h33.46.662,PRIYANSHI.AU2220101_solo.project,2024.1.5,None,2024-11-24 15h33.56.781411 +0530,
50,d,16,2,50,2,,,,,152.2227283997927,,152.21031019999646,152.2227283997927,153.2222900998313,153.2222900998313,153.2222900998313,153.2222900998313,154.22243519988842,154.32477499987,d,1,0.08790679997764528,None,,,,,,,,,,,,,,,,414473,001,2024-11-24_15h33.46.662,PRIYANSHI.AU2220101_solo.project,2024.1.5,None,2024-11-24 15h33.56.781411 +0530,
-50,a,17,0,51,0,,,,,154.3390214999672,,154.32772659999318,154.3390214999672,155.33965359977446,155.33965359977446,155.33965359977446,155.33965359977446,156.3387164999731,158.2234988999553,s,0,1.879834600025788,None,,,,,,,,,,,,,,,,414473,001,2024-11-24_15h33.46.662,PRIYANSHI.AU2220101_solo.project,2024.1.5,None,2024-11-24 15h33.56.781411 +0530,
-150,s,17,1,52,1,,,,,158.2385967997834,,158.225000299979,158.2385967997834,159.2379947998561,159.2379947998561,159.2379947998561,159.2379947998561,160.23844909993932,161.7233060998842,a,0,1.4687447000760585,None,,,,,,,,,,,,,,,,414473,001,2024-11-24_15h33.46.662,PRIYANSHI.AU2220101_solo.project,2024.1.5,None,2024-11-24 15h33.56.781411 +0530,
50,d,17,2,53,2,,,,,161.73786789993756,,161.72527209995314,161.73786789993756,162.73872529994696,162.73872529994696,162.73872529994696,162.73872529994696,163.73989549977705,165.84066529991105,d,1,2.0931150999385864,None,,,,,,,,,,,,,,,,414473,001,2024-11-24_15h33.46.662,PRIYANSHI.AU2220101_solo.project,2024.1.5,None,2024-11-24 15h33.56.781411 +0530,
-50,a,18,0,54,0,,,,,165.85516349994577,,165.84180219983682,165.85516349994577,166.85613189986907,166.85613189986907,166.85613189986907,166.85613189986907,167.8544619998429,168.17816269979812,a,1,0.3086910001002252,None,,,,,,,,,,,,,,,,414473,001,2024-11-24_15h33.46.662,PRIYANSHI.AU2220101_solo.project,2024.1.5,None,2024-11-24 15h33.56.781411 +0530,
-150,s,18,1,55,1,,,,,168.18855279986747,,168.17937609995715,168.18855279986747,169.1899968998041,169.1899968998041,169.1899968998041,169.1899968998041,170.18778629996814,171.7732707997784,d,0,1.5735440999269485,None,,,,,,,,,,,,,,,,414473,001,2024-11-24_15h33.46.662,PRIYANSHI.AU2220101_solo.project,2024.1.5,None,2024-11-24 15h33.56.781411 +0530,
50,d,18,2,56,2,,,,,171.7885309997946,,171.77495729993097,171.7885309997946,172.78903489978984,172.78903489978984,172.78903489978984,172.78903489978984,173.78792629996315,175.29056259989738,s,0,1.4853026000782847,None,,,,,,,,,,,,,,,,414473,001,2024-11-24_15h33.46.662,PRIYANSHI.AU2220101_solo.project,2024.1.5,None,2024-11-24 15h33.56.781411 +0530,
-50,a,19,0,57,0,,,,,175.30505209998228,,175.2925699998159,175.30505209998228,176.30545309977606,176.30545309977606,176.30545309977606,176.30545309977606,177.30536719993688,178.39032389991917,a,1,1.0714197000488639,None,,,,,,,,,,,,,,,,414473,001,2024-11-24_15h33.46.662,PRIYANSHI.AU2220101_solo.project,2024.1.5,None,2024-11-24 15h33.56.781411 +0530,
-150,s,19,1,58,1,,,,,178.40466029988602,,178.39192929980345,178.40466029988602,179.40457509993576,179.40457509993576,179.40457509993576,179.40457509993576,180.40505169983953,180.87260139989667,a,0,0.45238259993493557,None,,,,,,,,,,,,,,,,414473,001,2024-11-24_15h33.46.662,PRIYANSHI.AU2220101_solo.project,2024.1.5,None,2024-11-24 15h33.56.781411 +0530,
50,d,19,2,59,2,,,,,180.88786139991134,,180.8737362998072,180.88786139991134,181.88785969978198,181.88785969978198,181.88785969978198,181.88785969978198,182.8879323999863,184.44177919998765,d,1,1.538957200013101,None,,,,,,,,,,,,,,,,414473,001,2024-11-24_15h33.46.662,PRIYANSHI.AU2220101_solo.project,2024.1.5,None,2024-11-24 15h33.56.781411 +0530,
,,,,,,,,,,,,,,,,,,,,,,,,184.44255139981396,184.74134989990853,186.4545411998406,,,,,,,,,,,,,414473,001,2024-11-24_15h33.46.662,PRIYANSHI.AU2220101_solo.project,2024.1.5,None,2024-11-24 15h33.56.781411 +0530,
-50,a,,,,,0,0,0,0,186.47805959987454,,,,,,,,,,,,,,,,,186.47069669980556,186.47805959987454,187.454880699981,187.454880699981,187.454880699981,187.48763549979776,188.4543973999098,189.15588699979708,a,1,0.6851232999470085,None,414473,001,2024-11-24_15h33.46.662,PRIYANSHI.AU2220101_solo.project,2024.1.5,None,2024-11-24 15h33.56.781411 +0530,
-50,a,,,,,0,1,1,0,189.17110409983434,,,,,,,,,,,,,,,,,189.1571717998013,189.17110409983434,190.17163349990733,190.17163349990733,190.17163349990733,190.17163349990733,191.1707543998491,191.53975519980304,s,0,0.3642005000729114,None,414473,001,2024-11-24_15h33.46.662,PRIYANSHI.AU2220101_solo.project,2024.1.5,None,2024-11-24 15h33.56.781411 +0530,
-150,s,,,,,0,2,2,1,191.55805909982882,,,,,,,,,,,,,,,,,191.54107719985768,191.55805909982882,192.55456029996276,192.55456029996276,192.55456029996276,192.57239729980938,193.55479109985754,193.63943309988827,d,0,0.08232769998721778,None,414473,001,2024-11-24_15h33.46.662,PRIYANSHI.AU2220101_solo.project,2024.1.5,None,2024-11-24 15h33.56.781411 +0530,
-150,s,,,,,1,0,3,1,193.65799320000224,,,,,,,,,,,,,,,,,193.64108149986714,193.65799320000224,194.6546259999741,194.6546259999741,194.6546259999741,194.67050119978376,195.6551660997793,196.77276119985618,s,1,1.109792900038883,None,414473,001,2024-11-24_15h33.46.662,PRIYANSHI.AU2220101_solo.project,2024.1.5,None,2024-11-24 15h33.56.781411 +0530,
50,d,,,,,1,1,4,2,196.78847329993732,,,,,,,,,,,,,,,,,196.77368949982338,196.78847329993732,197.78713919990696,197.78713919990696,197.78713919990696,197.80417659995146,198.78718200000003,199.65519569977187,a,0,0.851952200056985,None,414473,001,2024-11-24_15h33.46.662,PRIYANSHI.AU2220101_solo.project,2024.1.5,None,2024-11-24 15h33.56.781411 +0530,
50,d,,,,,1,2,5,2,199.67183819995262,,,,,,,,,,,,,,,,,199.65713799977675,199.67183819995262,200.67153349984437,200.67153349984437,200.67153349984437,200.67153349984437,201.67102639982477,202.65664489986375,d,1,0.9690264998935163,None,414473,001,2024-11-24_15h33.46.662,PRIYANSHI.AU2220101_solo.project,2024.1.5,None,2024-11-24 15h33.56.781411 +0530,
50,d,,,,,2,0,6,2,202.66987279988825,,,,,,,,,,,,,,,,,202.65820369985886,202.66987279988825,203.67163369990885,203.67163369990885,203.67163369990885,203.67163369990885,204.6705101998523,205.8401199998334,s,0,1.1515568001195788,None,414473,001,2024-11-24_15h33.46.662,PRIYANSHI.AU2220101_solo.project,2024.1.5,None,2024-11-24 15h33.56.781411 +0530,
-50,a,,,,,2,1,7,0,205.8535618998576,,,,,,,,,,,,,,,,,205.84277649992146,205.8535618998576,206.8550430999603,206.8550430999603,206.8550430999603,206.8550430999603,207.8539287999738,209.4089303999208,a,1,1.5397022999823093,None,414473,001,2024-11-24_15h33.46.662,PRIYANSHI.AU2220101_solo.project,2024.1.5,None,2024-11-24 15h33.56.781411 +0530,
-150,s,,,,,2,2,8,1,209.42048399988562,,,,,,,,,,,,,,,,,209.41097799991257,209.42048399988562,210.4207391999662,210.4207391999662,210.4207391999662,210.4207391999662,211.42012109979987,212.55598169984296,d,0,1.120397699996829,None,414473,001,2024-11-24_15h33.46.662,PRIYANSHI.AU2220101_solo.project,2024.1.5,None,2024-11-24 15h33.56.781411 +0530,
-150,s,,,,,3,0,9,1,212.5713980998844,,,,,,,,,,,,,,,,,212.55753049999475,212.5713980998844,213.57029039994814,213.57029039994814,213.57029039994814,213.57029039994814,214.56982689979486,215.03922589984722,a,0,0.4540330001618713,None,414473,001,2024-11-24_15h33.46.662,PRIYANSHI.AU2220101_solo.project,2024.1.5,None,2024-11-24 15h33.56.781411 +0530,
-150,s,,,,,3,1,10,1,215.05343390000053,,,,,,,,,,,,,,,,,215.0406962998677,215.05343390000053,216.05436079995707,216.05436079995707,216.05436079995707,216.05436079995707,217.05470289988443,219.32093659997918,s,1,2.2542491999920458,None,414473,001,2024-11-24_15h33.46.662,PRIYANSHI.AU2220101_solo.project,2024.1.5,None,2024-11-24 15h33.56.781411 +0530,
-150,s,,,,,3,2,11,1,219.33694659988396,,,,,,,,,,,,,,,,,219.32255809986964,219.33694659988396,220.3368838999886,220.3368838999886,220.3368838999886,220.3368838999886,221.3213705997914,222.85525469994172,s,1,1.5188390999101102,None,414473,001,2024-11-24_15h33.46.662,PRIYANSHI.AU2220101_solo.project,2024.1.5,None,2024-11-24 15h33.56.781411 +0530,
50,d,,,,,4,0,12,2,222.87012049998157,,,,,,,,,,,,,,,,,222.8562802998349,222.87012049998157,223.87100769998506,223.87100769998506,223.87100769998506,223.87100769998506,224.87020139978267,225.438590799924,a,0,0.5641592999454588,None,414473,001,2024-11-24_15h33.46.662,PRIYANSHI.AU2220101_solo.project,2024.1.5,None,2024-11-24 15h33.56.781411 +0530,
50,d,,,,,4,1,13,2,225.45752609986812,,,,,,,,,,,,,,,,,225.43967629992403,225.45752609986812,226.4538418999873,226.4538418999873,226.4538418999873,226.4704489998985,227.4527254998684,227.9911592998542,s,0,0.5230646000709385,None,414473,001,2024-11-24_15h33.46.662,PRIYANSHI.AU2220101_solo.project,2024.1.5,None,2024-11-24 15h33.56.781411 +0530,
50,d,,,,,4,2,14,2,228.00461679999717,,,,,,,,,,,,,,,,,227.99225609982386,228.00461679999717,229.00427889986895,229.00427889986895,229.00427889986895,229.00427889986895,230.00365079985932,231.73831119993702,a,0,1.7303760000504553,None,414473,001,2024-11-24_15h33.46.662,PRIYANSHI.AU2220101_solo.project,2024.1.5,None,2024-11-24 15h33.56.781411 +0530,
-50,a,,,,,5,0,15,0,231.75721859978512,,,,,,,,,,,,,,,,,231.73943529999815,231.75721859978512,232.7539421999827,232.7539421999827,232.7539421999827,232.77036049985327,233.7529113998171,235.08867389988154,a,1,1.3312514999415725,None,414473,001,2024-11-24_15h33.46.662,PRIYANSHI.AU2220101_solo.project,2024.1.5,None,2024-11-24 15h33.56.781411 +0530,
-150,s,,,,,5,1,16,1,235.1028263999615,,,,,,,,,,,,,,,,,235.0901836999692,235.1028263999615,236.1035561999306,236.1035561999306,236.1035561999306,236.1035561999306,237.1041328997817,238.02218589978293,d,0,0.9152430999092758,None,414473,001,2024-11-24_15h33.46.662,PRIYANSHI.AU2220101_solo.project,2024.1.5,None,2024-11-24 15h33.56.781411 +0530,
-150,s,,,,,5,2,17,1,238.0361760999076,,,,,,,,,,,,,,,,,238.023220699979,238.0361760999076,239.03601239994168,239.03601239994168,239.03601239994168,239.03601239994168,240.03664329997264,240.95552479987964,s,1,0.9086582998279482,None,414473,001,2024-11-24_15h33.46.662,PRIYANSHI.AU2220101_solo.project,2024.1.5,None,2024-11-24 15h33.56.781411 +0530,
-150,s,,,,,6,0,18,1,240.9699051999487,,,,,,,,,,,,,,,,,240.95752879977226,240.9699051999487,241.9704634998925,241.9704634998925,241.9704634998925,241.9704634998925,242.96899199998006,243.8385461999569,s,1,0.8531537998933345,None,414473,001,2024-11-24_15h33.46.662,PRIYANSHI.AU2220101_solo.project,2024.1.5,None,2024-11-24 15h33.56.781411 +0530,
-150,s,,,,,6,1,19,1,243.8531851998996,,,,,,,,,,,,,,,,,243.8402920998633,243.8531851998996,244.8540115999058,244.8540115999058,244.8540115999058,244.8540115999058,245.8522379999049,247.05583709990606,s,1,1.1991119000595063,None,414473,001,2024-11-24_15h33.46.662,PRIYANSHI.AU2220101_solo.project,2024.1.5,None,2024-11-24 15h33.56.781411 +0530,
-150,s,,,,,6,2,20,1,247.0697527998127,,,,,,,,,,,,,,,,,247.0574701000005,247.0697527998127,248.0697463999968,248.0697463999968,248.0697463999968,248.0697463999968,249.06931149982847,251.00374819990247,a,0,1.9320002999156713,None,414473,001,2024-11-24_15h33.46.662,PRIYANSHI.AU2220101_solo.project,2024.1.5,None,2024-11-24 15h33.56.781411 +0530,
-50,a,,,,,7,0,21,0,251.02013879991136,,,,,,,,,,,,,,,,,251.00554749998264,251.02013879991136,252.02053729980253,252.02053729980253,252.02053729980253,252.02053729980253,253.02062629978172,253.27259409986436,d,0,0.24346620007418096,None,414473,001,2024-11-24_15h33.46.662,PRIYANSHI.AU2220101_solo.project,2024.1.5,None,2024-11-24 15h33.56.781411 +0530,
-50,a,,,,,7,1,22,0,253.2860218998976,,,,,,,,,,,,,,,,,253.2742909998633,253.2860218998976,254.28602049988694,254.28602049988694,254.28602049988694,254.28602049988694,255.28742619999684,256.32139199995436,s,0,1.0236339999828488,None,414473,001,2024-11-24_15h33.46.662,PRIYANSHI.AU2220101_solo.project,2024.1.5,None,2024-11-24 15h33.56.781411 +0530,
50,d,,,,,7,2,23,2,256.3366734997835,,,,,,,,,,,,,,,,,256.3234381999355,256.3366734997835,257.3367837998085,257.3367837998085,257.3367837998085,257.3367837998085,258.3357291999273,260.3220766999293,d,1,1.9826408999506384,None,414473,001,2024-11-24_15h33.46.662,PRIYANSHI.AU2220101_solo.project,2024.1.5,None,2024-11-24 15h33.56.781411 +0530,
50,d,,,,,8,0,24,2,260.3369665998034,,,,,,,,,,,,,,,,,260.32341569988057,260.3369665998034,261.3363978997804,261.3363978997804,261.3363978997804,261.3363978997804,262.3352100998163,263.5042365998961,a,0,1.1592892000917345,None,414473,001,2024-11-24_15h33.46.662,PRIYANSHI.AU2220101_solo.project,2024.1.5,None,2024-11-24 15h33.56.781411 +0530,
-50,a,,,,,8,1,25,0,263.5199702999089,,,,,,,,,,,,,,,,,263.5063444999978,263.5199702999089,264.5193193999585,264.5193193999585,264.5193193999585,264.5193193999585,265.52010539988987,266.7884703997988,d,0,1.2589410999789834,None,414473,001,2024-11-24_15h33.46.662,PRIYANSHI.AU2220101_solo.project,2024.1.5,None,2024-11-24 15h33.56.781411 +0530,
-50,a,,,,,8,2,26,0,266.80221159989014,,,,,,,,,,,,,,,,,266.7911236998625,266.80221159989014,267.8035600997973,267.8035600997973,267.8035600997973,267.8035600997973,268.80250419978984,270.2035722997971,a,1,1.3921509000938386,None,414473,001,2024-11-24_15h33.46.662,PRIYANSHI.AU2220101_solo.project,2024.1.5,None,2024-11-24 15h33.56.781411 +0530,
50,d,,,,,9,0,27,2,270.22020749980584,,,,,,,,,,,,,,,,,270.2056175998878,270.22020749980584,271.22035189997405,271.22035189997405,271.22035189997405,271.22035189997405,272.21888129995205,272.35434099985287,s,0,0.120492999907583,None,414473,001,2024-11-24_15h33.46.662,PRIYANSHI.AU2220101_solo.project,2024.1.5,None,2024-11-24 15h33.56.781411 +0530,
50,d,,,,,9,1,28,2,272.3688132998068,,,,,,,,,,,,,,,,,272.35556409996934,272.3688132998068,273.3698453998659,273.3698453998659,273.3698453998659,273.3698453998659,274.3688029998448,275.97169899987057,s,0,1.59505490004085,None,414473,001,2024-11-24_15h33.46.662,PRIYANSHI.AU2220101_solo.project,2024.1.5,None,2024-11-24 15h33.56.781411 +0530,
50,d,,,,,9,2,29,2,275.98544819978997,,,,,,,,,,,,,,,,,275.9733472999651,275.98544819978997,276.98532769992016,276.98532769992016,276.98532769992016,276.98532769992016,277.9849438997917,279.620308799902,s,0,1.6325709000229836,None,414473,001,2024-11-24_15h33.46.662,PRIYANSHI.AU2220101_solo.project,2024.1.5,None,2024-11-24 15h33.56.781411 +0530,
50,d,,,,,10,0,30,2,279.6379623999819,,,,,,,,,,,,,,,,,279.62126249982975,279.6379623999819,280.6360739998054,280.6360739998054,280.6360739998054,280.6524368999526,281.6343358999584,283.2197200998198,s,0,1.5714288998860866,None,414473,001,2024-11-24_15h33.46.662,PRIYANSHI.AU2220101_solo.project,2024.1.5,None,2024-11-24 15h33.56.781411 +0530,
-50,a,,,,,10,1,31,0,283.2345202998258,,,,,,,,,,,,,,,,,283.22124389978126,283.2345202998258,284.23535929992795,284.23535929992795,284.23535929992795,284.23535929992795,285.23587319999933,287.6032298998907,s,0,2.36089410004206,None,414473,001,2024-11-24_15h33.46.662,PRIYANSHI.AU2220101_solo.project,2024.1.5,None,2024-11-24 15h33.56.781411 +0530,
-150,s,,,,,10,2,32,1,287.6199867997784,,,,,,,,,,,,,,,,,287.6052414998412,287.6199867997784,288.61955259996466,288.61955259996466,288.61955259996466,288.61955259996466,289.6178252999671,290.80384899978526,a,0,1.1762620999943465,None,414473,001,2024-11-24_15h33.46.662,PRIYANSHI.AU2220101_solo.project,2024.1.5,None,2024-11-24 15h33.56.781411 +0530,
-50,a,,,,,11,0,33,0,290.81838149996474,,,,,,,,,,,,,,,,,290.8054817998782,290.81838149996474,291.8192140997853,291.8192140997853,291.8192140997853,291.8192140997853,292.8181723000016,294.5206578997895,s,0,1.6851577998604625,None,414473,001,2024-11-24_15h33.46.662,PRIYANSHI.AU2220101_solo.project,2024.1.5,None,2024-11-24 15h33.56.781411 +0530,
-50,a,,,,,11,1,34,0,294.53450049995445,,,,,,,,,,,,,,,,,294.5227761999704,294.53450049995445,295.5348247999791,295.5348247999791,295.5348247999791,295.5348247999791,296.53590909997,297.9522499998566,d,0,1.4098135000094771,None,414473,001,2024-11-24_15h33.46.662,PRIYANSHI.AU2220101_solo.project,2024.1.5,None,2024-11-24 15h33.56.781411 +0530,
-150,s,,,,,11,2,35,1,297.9675170998089,,,,,,,,,,,,,,,,,297.95359569997527,297.9675170998089,298.96794439991936,298.96794439991936,298.96794439991936,298.96794439991936,299.9680484998971,301.6201762999408,a,0,1.6499717000406235,None,414473,001,2024-11-24_15h33.46.662,PRIYANSHI.AU2220101_solo.project,2024.1.5,None,2024-11-24 15h33.56.781411 +0530,
50,d,,,,,12,0,36,2,301.6344625998754,,,,,,,,,,,,,,,,,301.62104129977524,301.6344625998754,302.6352969999425,302.6352969999425,302.6352969999425,302.6352969999425,303.6346330998931,305.3056840999052,s,0,1.667886900017038,None,414473,001,2024-11-24_15h33.46.662,PRIYANSHI.AU2220101_solo.project,2024.1.5,None,2024-11-24 15h33.56.781411 +0530,
50,d,,,,,12,1,37,2,305.3175081999507,,,,,,,,,,,,,,,,,305.30734209995717,305.3175081999507,306.3189341998659,306.3189341998659,306.3189341998659,306.3189341998659,307.3223115999717,307.48615979985334,d,1,0.15932870004326105,None,414473,001,2024-11-24_15h33.46.662,PRIYANSHI.AU2220101_solo.project,2024.1.5,None,2024-11-24 15h33.56.781411 +0530,
-150,s,,,,,12,2,38,1,307.5012311998289,,,,,,,,,,,,,,,,,307.48729229997844,307.5012311998289,308.4851433997974,308.4851433997974,308.4851433997974,308.50273169996217,309.5008628999349,309.6547679998912,a,0,0.142805399838835,None,414473,001,2024-11-24_15h33.46.662,PRIYANSHI.AU2220101_solo.project,2024.1.5,None,2024-11-24 15h33.56.781411 +0530,
50,d,,,,,13,0,39,2,309.6686302998569,,,,,,,,,,,,,,,,,309.65579629992135,309.6686302998569,310.6676651998423,310.6676651998423,310.6676651998423,310.6676651998423,311.6686765998602,311.78664219984785,d,1,0.11413379991427064,None,414473,001,2024-11-24_15h33.46.662,PRIYANSHI.AU2220101_solo.project,2024.1.5,None,2024-11-24 15h33.56.781411 +0530,
50,d,,,,,13,1,40,2,311.8014478997793,,,,,,,,,,,,,,,,,311.7878414997831,311.8014478997793,312.7854935999494,312.7854935999494,312.7854935999494,312.8016323999036,313.800725299865,314.2032420998439,a,0,0.38384400005452335,None,414473,001,2024-11-24_15h33.46.662,PRIYANSHI.AU2220101_solo.project,2024.1.5,None,2024-11-24 15h33.56.781411 +0530,
-50,a,,,,,13,2,41,0,314.22052059997804,,,,,,,,,,,,,,,,,314.2042751999106,314.22052059997804,315.21813699998893,315.21813699998893,315.21813699998893,315.2345734999981,316.2176338999998,317.7355977999978,d,0,1.5086470998357981,None,414473,001,2024-11-24_15h33.46.662,PRIYANSHI.AU2220101_solo.project,2024.1.5,None,2024-11-24 15h33.56.781411 +0530,
-50,a,,,,,14,0,42,0,317.750064099906,,,,,,,,,,,,,,,,,317.73751829983667,317.750064099906,318.7517111999914,318.7517111999914,318.7517111999914,318.7517111999914,319.73410939984024,321.7856272999197,s,0,2.038201800081879,None,414473,001,2024-11-24_15h33.46.662,PRIYANSHI.AU2220101_solo.project,2024.1.5,None,2024-11-24 15h33.56.781411 +0530,
-150,s,,,,,14,1,43,1,321.80022969981655,,,,,,,,,,,,,,,,,321.78764859982766,321.80022969981655,322.8013412998989,322.8013412998989,322.8013412998989,322.8013412998989,323.80097229988314,326.0684038999025,a,0,2.2581853999290615,None,414473,001,2024-11-24_15h33.46.662,PRIYANSHI.AU2220101_solo.project,2024.1.5,None,2024-11-24 15h33.56.781411 +0530,
-50,a,,,,,14,2,44,0,326.08653699979186,,,,,,,,,,,,,,,,,326.0693127999548,326.08653699979186,327.0847353998106,327.0847353998106,327.0847353998106,327.10065839998424,328.08414979977533,329.23644669982605,d,0,1.146756200119853,None,414473,001,2024-11-24_15h33.46.662,PRIYANSHI.AU2220101_solo.project,2024.1.5,None,2024-11-24 15h33.56.781411 +0530,
-150,s,,,,,15,0,45,1,329.2517091999762,,,,,,,,,,,,,,,,,329.23853909992613,329.2517091999762,330.25163239985704,330.25163239985704,330.25163239985704,330.25163239985704,331.25010669999756,331.48687779996544,a,0,0.2277110000140965,None,414473,001,2024-11-24_15h33.46.662,PRIYANSHI.AU2220101_solo.project,2024.1.5,None,2024-11-24 15h33.56.781411 +0530,
-50,a,,,,,15,1,46,0,331.5041188998148,,,,,,,,,,,,,,,,,331.48848859989084,331.5041188998148,332.5011080999393,332.5011080999393,332.5011080999393,332.51830399991013,333.50010879989713,334.5027188998647,s,0,0.9982906999066472,None,414473,001,2024-11-24_15h33.46.662,PRIYANSHI.AU2220101_solo.project,2024.1.5,None,2024-11-24 15h33.56.781411 +0530,
-50,a,,,,,15,2,47,0,334.5164980997797,,,,,,,,,,,,,,,,,334.5039856999647,334.5164980997797,335.51804859982803,335.51804859982803,335.51804859982803,335.51804859982803,336.5187868999783,338.03670589998364,d,0,1.511992400046438,None,414473,001,2024-11-24_15h33.46.662,PRIYANSHI.AU2220101_solo.project,2024.1.5,None,2024-11-24 15h33.56.781411 +0530,
50,d,,,,,16,0,48,2,338.05023259995505,,,,,,,,,,,,,,,,,338.03832549997605,338.05023259995505,339.05113609996624,339.05113609996624,339.05113609996624,339.05113609996624,340.05072649987414,340.0696984999813,a,0,0.016642200062051415,None,414473,001,2024-11-24_15h33.46.662,PRIYANSHI.AU2220101_solo.project,2024.1.5,None,2024-11-24 15h33.56.781411 +0530,
50,d,,,,,16,1,49,2,340.08411799999885,,,,,,,,,,,,,,,,,340.07111699995585,340.08411799999885,341.08375239977613,341.08375239977613,341.08375239977613,341.08375239977613,342.08314409991726,344.45272769988514,a,0,2.3615554999560118,None,414473,001,2024-11-24_15h33.46.662,PRIYANSHI.AU2220101_solo.project,2024.1.5,None,2024-11-24 15h33.56.781411 +0530,
-150,s,,,,,16,2,50,1,344.4673602997791,,,,,,,,,,,,,,,,,344.4545429998543,344.4673602997791,345.46687709982507,345.46687709982507,345.46687709982507,345.46687709982507,346.4661778998561,347.0530092997942,s,1,0.5826491999905556,None,414473,001,2024-11-24_15h33.46.662,PRIYANSHI.AU2220101_solo.project,2024.1.5,None,2024-11-24 15h33.56.781411 +0530,
-50,a,,,,,17,0,51,0,347.0670423998963,,,,,,,,,,,,,,,,,347.05469349981286,347.0670423998963,348.06831519980915,348.06831519980915,348.06831519980915,348.06831519980915,349.0668195998296,351.0851612999104,d,0,2.0149353998713195,None,414473,001,2024-11-24_15h33.46.662,PRIYANSHI.AU2220101_solo.project,2024.1.5,None,2024-11-24 15h33.56.781411 +0530,
-150,s,,,,,17,1,52,1,351.10241739987396,,,,,,,,,,,,,,,,,351.0862287997734,351.10241739987396,352.10147539991885,352.10147539991885,352.10147539991885,352.1179936998524,353.10140859987587,355.71882899990305,s,1,2.6113505999092013,None,414473,001,2024-11-24_15h33.46.662,PRIYANSHI.AU2220101_solo.project,2024.1.5,None,2024-11-24 15h33.56.781411 +0530,
-50,a,,,,,17,2,53,0,355.73356839991175,,,,,,,,,,,,,,,,,355.7200505998917,355.73356839991175,356.73387339990586,356.73387339990586,356.73387339990586,356.73387339990586,357.73282479983754,358.9897848998662,a,1,1.2392575000412762,None,414473,001,2024-11-24_15h33.46.662,PRIYANSHI.AU2220101_solo.project,2024.1.5,None,2024-11-24 15h33.56.781411 +0530,
-50,a,,,,,18,0,54,0,358.99998069996946,,,,,,,,,,,,,,,,,358.9918730999343,358.99998069996946,360.0013292999938,360.0013292999938,360.0013292999938,360.0013292999938,361.0002734998707,362.2680074998643,d,0,1.2535389000549912,None,414473,001,2024-11-24_15h33.46.662,PRIYANSHI.AU2220101_solo.project,2024.1.5,None,2024-11-24 15h33.56.781411 +0530,
-150,s,,,,,18,1,55,1,362.28270099987276,,,,,,,,,,,,,,,,,362.2696644999087,362.28270099987276,363.2830570999067,363.2830570999067,363.2830570999067,363.2830570999067,364.28418919979595,364.40235939994454,s,1,0.11186689999885857,None,414473,001,2024-11-24_15h33.46.662,PRIYANSHI.AU2220101_solo.project,2024.1.5,None,2024-11-24 15h33.56.781411 +0530,
50,d,,,,,18,2,56,2,364.419422699837,,,,,,,,,,,,,,,,,364.403662199853,364.419422699837,365.41618079994805,365.41618079994805,365.41618079994805,365.43305979995057,366.4171557999216,367.2175546998624,a,0,0.7852171000558883,None,414473,001,2024-11-24_15h33.46.662,PRIYANSHI.AU2220101_solo.project,2024.1.5,None,2024-11-24 15h33.56.781411 +0530,
50,d,,,,,19,0,57,2,367.23299139994197,,,,,,,,,,,,,,,,,367.219392699888,367.23299139994197,368.2337769998703,368.2337769998703,368.2337769998703,368.2337769998703,369.23450159979984,369.88530229986645,d,1,0.6360155998263508,None,414473,001,2024-11-24_15h33.46.662,PRIYANSHI.AU2220101_solo.project,2024.1.5,None,2024-11-24 15h33.56.781411 +0530,
-50,a,,,,,19,1,58,0,369.9002052999567,,,,,,,,,,,,,,,,,369.88741009985097,369.9002052999567,370.9000415999908,370.9000415999908,370.9000415999908,370.9000415999908,371.9000909999013,372.02463859994896,s,0,0.1063900999724865,None,414473,001,2024-11-24_15h33.46.662,PRIYANSHI.AU2220101_solo.project,2024.1.5,None,2024-11-24 15h33.56.781411 +0530,
-150,s,,,,,19,2,59,1,372.04849059996195,,,,,,,,,,,,,,,,,372.0256218998693,372.04849059996195,373.034217099892,373.034217099892,373.034217099892,373.0498534999788,374.03375819977373,374.483947499888,s,1,0.4405447000171989,None,414473,001,2024-11-24_15h33.46.662,PRIYANSHI.AU2220101_solo.project,2024.1.5,None,2024-11-24 15h33.56.781411 +0530,
