pos,corr_resp,Pos,correctKey,trials.thisRepN,trials.thisTrialN,trials.thisN,trials.thisIndex,trials_2.thisRepN,trials_2.thisTrialN,trials_2.thisN,trials_2.thisIndex,thisRow.t,notes,trial.started,fixciation.started,fixciation_2.started,fixciation_3.started,fixciation_4.started,fixciation_5.started,fixciation.stopped,key_resp.started,trial.stopped,key_resp.keys,key_resp.corr,key_resp.rt,key_resp.duration,test.started,stimulus.started,stimulus.stopped,stimulus_2.started,stimulus_3.started,stimulus_4.started,stimulus_5.started,stimulus_6.started,key_resp_2.started,test.stopped,key_resp_2.keys,key_resp_2.corr,key_resp_2.rt,key_resp_2.duration,participant,session,date,expName,psychopyVersion,frameRate,expStart,
-50,a,,,0,0,0,0,,,,,0.2020399000030011,,0.19588320003822446,0.2020399000030011,1.0046399999409914,1.0046399999409914,1.0046399999409914,1.0046399999409914,1.2036445001140237,2.004095199983567,4.8897146000526845,a,1,2.877085299929604,None,,,,,,,,,,,,,,,958053,001,2024-11-26_16h39.59.331,PRIYANSHI.AU2220101_solo.project,2024.1.5,None,2024-11-26 16h40.05.605104 +0530,
-150,s,,,0,1,1,1,,,,,4.902479300042614,,4.890371500048786,4.902479300042614,5.903569600079209,5.903569600079209,5.903569600079209,5.903569600079209,5.903569600079209,6.904073700075969,7.272644300013781,s,1,0.3631906001828611,None,,,,,,,,,,,,,,,958053,001,2024-11-26_16h39.59.331,PRIYANSHI.AU2220101_solo.project,2024.1.5,None,2024-11-26 16h40.05.605104 +0530,
50,d,,,0,2,2,2,,,,,7.2866128999739885,,7.273324599955231,7.2866128999739885,8.286940900143236,8.286940900143236,8.286940900143236,8.286940900143236,8.286940900143236,9.285847600083798,9.521239900030196,d,1,0.2300499000120908,None,,,,,,,,,,,,,,,958053,001,2024-11-26_16h39.59.331,PRIYANSHI.AU2220101_solo.project,2024.1.5,None,2024-11-26 16h40.05.605104 +0530,
150,f,,,0,3,3,3,,,,,9.53574960003607,,9.522732800105587,9.53574960003607,10.520280899945647,10.520280899945647,10.520280899945647,10.520280899945647,10.537471499992535,11.53652730002068,11.603989700088277,f,1,0.05358409998007119,None,,,,,,,,,,,,,,,958053,001,2024-11-26_16h39.59.331,PRIYANSHI.AU2220101_solo.project,2024.1.5,None,2024-11-26 16h40.05.605104 +0530,
60,g,,,0,4,4,4,,,,,11.620214299997315,,11.604451999999583,11.620214299997315,12.620387400034815,12.620387400034815,12.620387400034815,12.620387400034815,12.620387400034815,13.619013800052926,16.28883110010065,g,1,2.6673442001920193,None,,,,,,,,,,,,,,,958053,001,2024-11-26_16h39.59.331,PRIYANSHI.AU2220101_solo.project,2024.1.5,None,2024-11-26 16h40.05.605104 +0530,
-50,a,,,1,0,5,0,,,,,16.30209490004927,,16.29051600000821,16.30209490004927,17.30321849999018,17.30321849999018,17.30321849999018,17.30321849999018,17.30321849999018,18.304325300036,18.52338959998451,a,1,0.21563059999607503,None,,,,,,,,,,,,,,,958053,001,2024-11-26_16h39.59.331,PRIYANSHI.AU2220101_solo.project,2024.1.5,None,2024-11-26 16h40.05.605104 +0530,
-150,s,,,1,1,6,1,,,,,18.536340600112453,,18.524303199956194,18.536340600112453,19.53691989998333,19.53691989998333,19.53691989998333,19.53691989998333,19.53691989998333,20.53684279997833,21.486570300068706,s,1,0.9419840998016298,None,,,,,,,,,,,,,,,958053,001,2024-11-26_16h39.59.331,PRIYANSHI.AU2220101_solo.project,2024.1.5,None,2024-11-26 16h40.05.605104 +0530,
50,d,,,1,2,7,2,,,,,21.502044500084594,,21.487094100099057,21.502044500084594,22.48721590009518,22.48721590009518,22.48721590009518,22.48721590009518,22.503854800015688,23.487100700149313,23.85354489996098,d,1,0.3621578000020236,None,,,,,,,,,,,,,,,958053,001,2024-11-26_16h39.59.331,PRIYANSHI.AU2220101_solo.project,2024.1.5,None,2024-11-26 16h40.05.605104 +0530,
150,f,,,1,3,8,3,,,,,23.868739600060508,,23.854039099998772,23.868739600060508,24.86950090015307,24.86950090015307,24.86950090015307,24.86950090015307,24.86950090015307,25.85375989996828,26.39046739996411,f,1,0.5333789999131113,None,,,,,,,,,,,,,,,958053,001,2024-11-26_16h39.59.331,PRIYANSHI.AU2220101_solo.project,2024.1.5,None,2024-11-26 16h40.05.605104 +0530,
60,g,,,1,4,9,4,,,,,26.402669799979776,,26.39194680005312,26.402669799979776,27.404064000118524,27.404064000118524,27.404064000118524,27.404064000118524,27.404064000118524,28.403477299958467,28.55531259998679,g,1,0.14627090003341436,None,,,,,,,,,,,,,,,958053,001,2024-11-26_16h39.59.331,PRIYANSHI.AU2220101_solo.project,2024.1.5,None,2024-11-26 16h40.05.605104 +0530,
-50,a,,,2,0,10,0,,,,,28.568593899952248,,28.555948300054297,28.568593899952248,29.570290900068358,29.570290900068358,29.570290900068358,29.570290900068358,29.570290900068358,30.569644400151446,30.670174699975178,a,1,None,None,,,,,,,,,,,,,,,958053,001,2024-11-26_16h39.59.331,PRIYANSHI.AU2220101_solo.project,2024.1.5,None,2024-11-26 16h40.05.605104 +0530,
-150,s,,,2,1,11,1,,,,,30.685872599948198,,30.670675500063226,30.685872599948198,31.670200400054455,31.670200400054455,31.670200400054455,31.670200400054455,31.686609799973667,32.68633239995688,32.81926600006409,s,1,0.1208143001422286,None,,,,,,,,,,,,,,,958053,001,2024-11-26_16h39.59.331,PRIYANSHI.AU2220101_solo.project,2024.1.5,None,2024-11-26 16h40.05.605104 +0530,
50,d,,,2,2,12,2,,,,,32.83518259995617,,32.81984389992431,32.83518259995617,33.819269800093025,33.819269800093025,33.819269800093025,33.819269800093025,33.835477200103924,34.81943030003458,35.152756799943745,d,1,0.3277823000680655,None,,,,,,,,,,,,,,,958053,001,2024-11-26_16h39.59.331,PRIYANSHI.AU2220101_solo.project,2024.1.5,None,2024-11-26 16h40.05.605104 +0530,
150,f,,,2,3,13,3,,,,,35.16822610003874,,35.15321739995852,35.16822610003874,36.168296500109136,36.168296500109136,36.168296500109136,36.168296500109136,36.168296500109136,37.15365969995037,37.468947200104594,f,1,0.3000231001060456,None,,,,,,,,,,,,,,,958053,001,2024-11-26_16h39.59.331,PRIYANSHI.AU2220101_solo.project,2024.1.5,None,2024-11-26 16h40.05.605104 +0530,
60,g,,,2,4,14,4,,,,,37.485026499954984,,37.47000019997358,37.485026499954984,38.469095499953255,38.469095499953255,38.469095499953255,38.469095499953255,38.48608070006594,39.470648700138554,39.586864199955016,g,1,0.10326329991221428,None,,,,,,,,,,,,,,,958053,001,2024-11-26_16h39.59.331,PRIYANSHI.AU2220101_solo.project,2024.1.5,None,2024-11-26 16h40.05.605104 +0530,
-50,a,,,3,0,15,0,,,,,39.60296729998663,,39.58821910014376,39.60296729998663,40.58588150003925,40.58588150003925,40.58588150003925,40.58588150003925,40.603229200001806,41.601998599944636,41.919376000063494,a,1,0.30255229980684817,None,,,,,,,,,,,,,,,958053,001,2024-11-26_16h39.59.331,PRIYANSHI.AU2220101_solo.project,2024.1.5,None,2024-11-26 16h40.05.605104 +0530,
-150,s,,,3,1,16,1,,,,,41.934883600100875,,41.91983920009807,41.934883600100875,42.9190382999368,42.9190382999368,42.9190382999368,42.9190382999368,42.93621630012058,43.92071340000257,44.07163970009424,s,1,0.14555600006133318,None,,,,,,,,,,,,,,,958053,001,2024-11-26_16h39.59.331,PRIYANSHI.AU2220101_solo.project,2024.1.5,None,2024-11-26 16h40.05.605104 +0530,
50,d,,,3,2,17,2,,,,,44.08562149992213,,44.07225910015404,44.08562149992213,45.08569290000014,45.08569290000014,45.08569290000014,45.08569290000014,45.08569290000014,46.08688880014233,46.28590409993194,d,1,0.18347240006551147,None,,,,,,,,,,,,,,,958053,001,2024-11-26_16h39.59.331,PRIYANSHI.AU2220101_solo.project,2024.1.5,None,2024-11-26 16h40.05.605104 +0530,
150,f,,,3,3,18,3,,,,,46.30145199992694,,46.28666749992408,46.30145199992694,47.286225100047886,47.286225100047886,47.286225100047886,47.286225100047886,47.30244170012884,48.287256699986756,48.37057869997807,f,1,None,None,,,,,,,,,,,,,,,958053,001,2024-11-26_16h39.59.331,PRIYANSHI.AU2220101_solo.project,2024.1.5,None,2024-11-26 16h40.05.605104 +0530,
60,g,,,3,4,19,4,,,,,48.38541899994016,,48.371344400104135,48.38541899994016,49.386003100080416,49.386003100080416,49.386003100080416,49.386003100080416,49.386003100080416,50.38464409997687,52.03621629998088,g,1,1.6424583999905735,None,,,,,,,,,,,,,,,958053,001,2024-11-26_16h39.59.331,PRIYANSHI.AU2220101_solo.project,2024.1.5,None,2024-11-26 16h40.05.605104 +0530,
-50,a,,,4,0,20,0,,,,,52.05229160003364,,52.03668970009312,52.05229160003364,53.03714310005307,53.03714310005307,53.03714310005307,53.03714310005307,53.053299700142816,54.03526820009574,54.118847500067204,a,1,0.06748019997030497,None,,,,,,,,,,,,,,,958053,001,2024-11-26_16h39.59.331,PRIYANSHI.AU2220101_solo.project,2024.1.5,None,2024-11-26 16h40.05.605104 +0530,
-150,s,,,4,1,21,1,,,,,54.13469139998779,,54.119342900114134,54.13469139998779,55.13607409992255,55.13607409992255,55.13607409992255,55.13607409992255,55.13607409992255,56.11869710008614,57.468915099976584,s,1,1.3346641000825912,None,,,,,,,,,,,,,,,958053,001,2024-11-26_16h39.59.331,PRIYANSHI.AU2220101_solo.project,2024.1.5,None,2024-11-26 16h40.05.605104 +0530,
50,d,,,4,2,22,2,,,,,57.484625099925324,,57.46938410005532,57.484625099925324,58.468452299945056,58.468452299945056,58.468452299945056,58.468452299945056,58.48506149998866,59.46938559995033,59.58627790003084,d,1,0.10155480005778372,None,,,,,,,,,,,,,,,958053,001,2024-11-26_16h39.59.331,PRIYANSHI.AU2220101_solo.project,2024.1.5,None,2024-11-26 16h40.05.605104 +0530,
150,f,,,4,3,23,3,,,,,59.602341999998316,,59.586745999986306,59.602341999998316,60.58638470014557,60.58638470014557,60.58638470014557,60.58638470014557,60.60278189997189,61.58504809997976,61.96872840006836,f,1,0.3700304999947548,None,,,,,,,,,,,,,,,958053,001,2024-11-26_16h39.59.331,PRIYANSHI.AU2220101_solo.project,2024.1.5,None,2024-11-26 16h40.05.605104 +0530,
60,g,,,4,4,24,4,,,,,61.98452390008606,,61.96932779997587,61.98452390008606,62.96820909995586,62.96820909995586,62.96820909995586,62.96820909995586,62.9844405001495,63.969948899932206,64.03728080005385,g,1,None,None,,,,,,,,,,,,,,,958053,001,2024-11-26_16h39.59.331,PRIYANSHI.AU2220101_solo.project,2024.1.5,None,2024-11-26 16h40.05.605104 +0530,
-50,a,,,5,0,25,0,,,,,64.0516193001531,,64.03775430005044,64.0516193001531,65.05148279992864,65.05148279992864,65.05148279992864,65.05148279992864,65.05148279992864,66.05103470012546,67.4029731999617,g,0,1.344423099886626,None,,,,,,,,,,,,,,,958053,001,2024-11-26_16h39.59.331,PRIYANSHI.AU2220101_solo.project,2024.1.5,None,2024-11-26 16h40.05.605104 +0530,
-150,s,,,5,1,26,1,,,,,67.41850419994444,,67.40356050012633,67.41850419994444,68.41902839997783,68.41902839997783,68.41902839997783,68.41902839997783,68.41902839997783,69.41901409998536,69.58578650001436,a,0,0.1614556999411434,None,,,,,,,,,,,,,,,958053,001,2024-11-26_16h39.59.331,PRIYANSHI.AU2220101_solo.project,2024.1.5,None,2024-11-26 16h40.05.605104 +0530,
50,d,,,5,2,27,2,,,,,69.60083850007504,,69.5863930999767,69.60083850007504,70.58496759994887,70.58496759994887,70.58496759994887,70.58496759994887,70.60209840000607,71.60174369998276,73.31970560015179,s,0,1.7121125999838114,None,,,,,,,,,,,,,,,958053,001,2024-11-26_16h39.59.331,PRIYANSHI.AU2220101_solo.project,2024.1.5,None,2024-11-26 16h40.05.605104 +0530,
150,f,,,5,3,28,3,,,,,73.33419470000081,,73.32125569996424,73.33419470000081,74.33552039996721,74.33552039996721,74.33552039996721,74.33552039996721,74.33552039996721,75.3362656000536,76.5026398000773,d,0,1.1580626000650227,None,,,,,,,,,,,,,,,958053,001,2024-11-26_16h39.59.331,PRIYANSHI.AU2220101_solo.project,2024.1.5,None,2024-11-26 16h40.05.605104 +0530,
60,g,,,5,4,29,4,,,,,76.5179723999463,,76.50312380003743,76.5179723999463,77.50194830005057,77.50194830005057,77.50194830005057,77.50194830005057,77.51811649999581,78.51750890002586,79.01827420014888,f,0,0.48462149989791214,None,,,,,,,,,,,,,,,958053,001,2024-11-26_16h39.59.331,PRIYANSHI.AU2220101_solo.project,2024.1.5,None,2024-11-26 16h40.05.605104 +0530,
-50,a,,,6,0,30,0,,,,,79.03416520007886,,79.01920880004764,79.03416520007886,80.0192332000006,80.0192332000006,80.0192332000006,80.0192332000006,80.03568840003572,81.0190340001136,81.40134129999205,g,0,0.3729779999703169,None,,,,,,,,,,,,,,,958053,001,2024-11-26_16h39.59.331,PRIYANSHI.AU2220101_solo.project,2024.1.5,None,2024-11-26 16h40.05.605104 +0530,
-150,s,,,6,1,31,1,,,,,81.41681220009923,,81.40180779993534,81.41681220009923,82.40144710009918,82.40144710009918,82.40144710009918,82.40144710009918,82.4180733000394,83.40128799993545,84.8523317000363,a,0,1.444541099946946,None,,,,,,,,,,,,,,,958053,001,2024-11-26_16h39.59.331,PRIYANSHI.AU2220101_solo.project,2024.1.5,None,2024-11-26 16h40.05.605104 +0530,
50,d,,,6,2,32,2,,,,,84.86793390009552,,84.85296580009162,84.86793390009552,85.85143669997342,85.85143669997342,85.85143669997342,85.85143669997342,85.86789839994162,86.8674417999573,87.6361096999608,s,0,0.7554415001068264,None,,,,,,,,,,,,,,,958053,001,2024-11-26_16h39.59.331,PRIYANSHI.AU2220101_solo.project,2024.1.5,None,2024-11-26 16h40.05.605104 +0530,
150,f,,,6,3,33,3,,,,,87.65118460007943,,87.63673899997957,87.65118460007943,88.65237329993397,88.65237329993397,88.65237329993397,88.65237329993397,88.65237329993397,89.6511785001494,91.40178450010717,d,0,1.7396949999965727,None,,,,,,,,,,,,,,,958053,001,2024-11-26_16h39.59.331,PRIYANSHI.AU2220101_solo.project,2024.1.5,None,2024-11-26 16h40.05.605104 +0530,
60,g,,,6,4,34,4,,,,,91.4175094999373,,91.4022328001447,91.4175094999373,92.40150190005079,92.40150190005079,92.40150190005079,92.40150190005079,92.4179328000173,93.41843860014342,93.5860520999413,f,0,0.16632159985601902,None,,,,,,,,,,,,,,,958053,001,2024-11-26_16h39.59.331,PRIYANSHI.AU2220101_solo.project,2024.1.5,None,2024-11-26 16h40.05.605104 +0530,
-50,a,,,7,0,35,0,,,,,93.60035720001906,,93.58663120004348,93.60035720001906,94.60182070010342,94.60182070010342,94.60182070010342,94.60182070010342,94.60182070010342,95.60262569994666,95.66845500003546,a,1,0.057803899981081486,None,,,,,,,,,,,,,,,958053,001,2024-11-26_16h39.59.331,PRIYANSHI.AU2220101_solo.project,2024.1.5,None,2024-11-26 16h40.05.605104 +0530,
-150,s,,,7,1,36,1,,,,,95.68432620004751,,95.66916360007599,95.68432620004751,96.6691276000347,96.6691276000347,96.6691276000347,96.6691276000347,96.68453969992697,97.68432980007492,102.33488440001383,s,1,4.638172700069845,None,,,,,,,,,,,,,,,958053,001,2024-11-26_16h39.59.331,PRIYANSHI.AU2220101_solo.project,2024.1.5,None,2024-11-26 16h40.05.605104 +0530,
50,d,,,7,2,37,2,,,,,102.35064509999938,,102.33631179993972,102.35064509999938,103.33491660002619,103.33491660002619,103.33491660002619,103.33491660002619,103.35153710003942,104.35113440011628,105.35115540004335,d,1,0.9895937999244779,None,,,,,,,,,,,,,,,958053,001,2024-11-26_16h39.59.331,PRIYANSHI.AU2220101_solo.project,2024.1.5,None,2024-11-26 16h40.05.605104 +0530,
150,f,,,7,3,38,3,,,,,105.36697269999422,,105.35165710002184,105.36697269999422,106.3511002000887,106.3511002000887,106.3511002000887,106.3511002000887,106.36761260009371,107.35110710002482,107.53741009999067,f,1,0.18026549997739494,None,,,,,,,,,,,,,,,958053,001,2024-11-26_16h39.59.331,PRIYANSHI.AU2220101_solo.project,2024.1.5,None,2024-11-26 16h40.05.605104 +0530,
60,g,,,7,4,39,4,,,,,107.55061740009114,,107.53804480005056,107.55061740009114,108.55158510012552,108.55158510012552,108.55158510012552,108.55158510012552,108.55158510012552,109.5508576000575,109.75079980003648,a,0,0.1904781002085656,None,,,,,,,,,,,,,,,958053,001,2024-11-26_16h39.59.331,PRIYANSHI.AU2220101_solo.project,2024.1.5,None,2024-11-26 16h40.05.605104 +0530,
-50,a,,,8,0,40,0,,,,,109.7662674000021,,109.75125960004516,109.7662674000021,110.7520274000708,110.7520274000708,110.7520274000708,110.7520274000708,110.76768849999644,111.75264550000429,111.80180020001717,s,0,0.04127279995009303,None,,,,,,,,,,,,,,,958053,001,2024-11-26_16h39.59.331,PRIYANSHI.AU2220101_solo.project,2024.1.5,None,2024-11-26 16h40.05.605104 +0530,
-150,s,,,8,1,41,1,,,,,111.81744160014205,,111.80284220003523,111.81744160014205,112.81728309998289,112.81728309998289,112.81728309998289,112.81728309998289,112.81728309998289,113.81663560005836,116.08486560010351,g,0,2.258287600008771,None,,,,,,,,,,,,,,,958053,001,2024-11-26_16h39.59.331,PRIYANSHI.AU2220101_solo.project,2024.1.5,None,2024-11-26 16h40.05.605104 +0530,
50,d,,,8,2,42,2,,,,,116.10078710014932,,116.08531210012734,116.10078710014932,117.09960880014114,117.09960880014114,117.09960880014114,117.09960880014114,117.09960880014114,118.09988670004532,118.33360400004312,f,0,0.2268362999893725,None,,,,,,,,,,,,,,,958053,001,2024-11-26_16h39.59.331,PRIYANSHI.AU2220101_solo.project,2024.1.5,None,2024-11-26 16h40.05.605104 +0530,
150,f,,,8,3,43,3,,,,,118.34981769998558,,118.33403829997405,118.34981769998558,119.33323600003496,119.33323600003496,119.33323600003496,119.33323600003496,119.34994950005785,120.33417070005089,120.50184569996782,d,0,0.15350929996930063,None,,,,,,,,,,,,,,,958053,001,2024-11-26_16h39.59.331,PRIYANSHI.AU2220101_solo.project,2024.1.5,None,2024-11-26 16h40.05.605104 +0530,
60,g,,,8,4,44,4,,,,,120.51631149998866,,120.50252560013905,120.51631149998866,121.51680850004777,121.51680850004777,121.51680850004777,121.51680850004777,121.51680850004777,122.51764989993535,122.7684387001209,s,0,0.24543090001679957,None,,,,,,,,,,,,,,,958053,001,2024-11-26_16h39.59.331,PRIYANSHI.AU2220101_solo.project,2024.1.5,None,2024-11-26 16h40.05.605104 +0530,
-50,a,,,9,0,45,0,,,,,122.78277810011059,,122.76922950008884,122.78277810011059,123.76796180009842,123.76796180009842,123.76796180009842,123.76796180009842,123.78476780001074,124.78400159999728,124.88345429999754,f,0,0.09030829998664558,None,,,,,,,,,,,,,,,958053,001,2024-11-26_16h39.59.331,PRIYANSHI.AU2220101_solo.project,2024.1.5,None,2024-11-26 16h40.05.605104 +0530,
-150,s,,,9,1,46,1,,,,,124.8997068000026,,124.88437830004841,124.8997068000026,125.89989689993672,125.89989689993672,125.89989689993672,125.89989689993672,125.89989689993672,126.89928949996829,128.43497649999335,g,0,1.5282244000118226,None,,,,,,,,,,,,,,,958053,001,2024-11-26_16h39.59.331,PRIYANSHI.AU2220101_solo.project,2024.1.5,None,2024-11-26 16h40.05.605104 +0530,
50,d,,,9,2,47,2,,,,,128.44999009999447,,128.4356341001112,128.44999009999447,129.44977340009063,129.44977340009063,129.44977340009063,129.44977340009063,129.44977340009063,130.44911519996822,132.5342769001145,a,0,2.0716913000214845,None,,,,,,,,,,,,,,,958053,001,2024-11-26_16h39.59.331,PRIYANSHI.AU2220101_solo.project,2024.1.5,None,2024-11-26 16h40.05.605104 +0530,
150,f,,,9,3,48,3,,,,,132.55048780003563,,132.5347051001154,132.55048780003563,133.5325796001125,133.5325796001125,133.5325796001125,133.5325796001125,133.56606759992428,134.55092080007307,134.85020949994214,s,0,0.2885223999619484,None,,,,,,,,,,,,,,,958053,001,2024-11-26_16h39.59.331,PRIYANSHI.AU2220101_solo.project,2024.1.5,None,2024-11-26 16h40.05.605104 +0530,
60,g,,,9,4,49,4,,,,,134.86587919993326,,134.85077790007927,134.86587919993326,135.8506720000878,135.8506720000878,135.8506720000878,135.8506720000878,135.86798720015213,136.8507642999757,137.03349569998682,d,0,0.17384999990463257,None,,,,,,,,,,,,,,,958053,001,2024-11-26_16h39.59.331,PRIYANSHI.AU2220101_solo.project,2024.1.5,None,2024-11-26 16h40.05.605104 +0530,
-50,a,,,10,0,50,0,,,,,137.04883070010692,,137.03452700003982,137.04883070010692,138.03384110005572,138.03384110005572,138.03384110005572,138.03384110005572,138.05093310005032,139.0330994001124,139.58659670013003,f,0,0.5512732998467982,None,,,,,,,,,,,,,,,958053,001,2024-11-26_16h39.59.331,PRIYANSHI.AU2220101_solo.project,2024.1.5,None,2024-11-26 16h40.05.605104 +0530,
-150,s,,,10,1,51,1,,,,,139.5998130000662,,139.58735210006125,139.5998130000662,140.6006285001058,140.6006285001058,140.6006285001058,140.6006285001058,140.6006285001058,141.59885319997557,143.40085280011408,g,0,1.7993528000079095,None,,,,,,,,,,,,,,,958053,001,2024-11-26_16h39.59.331,PRIYANSHI.AU2220101_solo.project,2024.1.5,None,2024-11-26 16h40.05.605104 +0530,
50,d,,,10,2,52,2,,,,,143.41650910000317,,143.40135530009866,143.41650910000317,144.41564320004545,144.41564320004545,144.41564320004545,144.41564320004545,144.41564320004545,145.41604560008273,145.7186773000285,a,0,0.2977264001965523,None,,,,,,,,,,,,,,,958053,001,2024-11-26_16h39.59.331,PRIYANSHI.AU2220101_solo.project,2024.1.5,None,2024-11-26 16h40.05.605104 +0530,
150,f,,,10,3,53,3,,,,,145.73244259995408,,145.71954050008208,145.73244259995408,146.73280240013264,146.73280240013264,146.73280240013264,146.73280240013264,146.73280240013264,147.7333718999289,148.16785720014013,s,0,0.43042370001785457,None,,,,,,,,,,,,,,,958053,001,2024-11-26_16h39.59.331,PRIYANSHI.AU2220101_solo.project,2024.1.5,None,2024-11-26 16h40.05.605104 +0530,
60,g,,,10,4,54,4,,,,,148.18207779992372,,148.16941730002873,148.18207779992372,149.1839997000061,149.1839997000061,149.1839997000061,149.1839997000061,149.1839997000061,150.1844037999399,151.00105710001662,d,0,0.8127651999238878,None,,,,,,,,,,,,,,,958053,001,2024-11-26_16h39.59.331,PRIYANSHI.AU2220101_solo.project,2024.1.5,None,2024-11-26 16h40.05.605104 +0530,
-50,a,,,11,0,55,0,,,,,151.01546810008585,,151.00170770008117,151.01546810008585,152.0160972001031,152.0160972001031,152.0160972001031,152.0160972001031,152.0160972001031,153.0000219999347,153.0505806999281,f,0,0.03842669981531799,None,,,,,,,,,,,,,,,958053,001,2024-11-26_16h39.59.331,PRIYANSHI.AU2220101_solo.project,2024.1.5,None,2024-11-26 16h40.05.605104 +0530,
-150,s,,,11,1,56,1,,,,,153.06675310013816,,153.05100989993662,153.06675310013816,154.05083770002238,154.05083770002238,154.05083770002238,154.05083770002238,154.0663266000338,155.04995250003412,155.71721559995785,g,0,0.6522943000309169,None,,,,,,,,,,,,,,,958053,001,2024-11-26_16h39.59.331,PRIYANSHI.AU2220101_solo.project,2024.1.5,None,2024-11-26 16h40.05.605104 +0530,
50,d,,,11,2,57,2,,,,,155.73273529997095,,155.7176522000227,155.73273529997095,156.71694510011002,156.71694510011002,156.71694510011002,156.71694510011002,156.73295560013503,157.71702360012569,158.33269900013693,a,0,0.6016996998805553,None,,,,,,,,,,,,,,,958053,001,2024-11-26_16h39.59.331,PRIYANSHI.AU2220101_solo.project,2024.1.5,None,2024-11-26 16h40.05.605104 +0530,
150,f,,,11,3,58,3,,,,,158.34874400007538,,158.33312990004197,158.34874400007538,159.33244629995897,159.33244629995897,159.33244629995897,159.33244629995897,159.3495499000419,160.33251990005374,160.7345481000375,s,0,0.39251330005936325,None,,,,,,,,,,,,,,,958053,001,2024-11-26_16h39.59.331,PRIYANSHI.AU2220101_solo.project,2024.1.5,None,2024-11-26 16h40.05.605104 +0530,
60,g,,,11,4,59,4,,,,,160.7489949001465,,160.73574799997732,160.7489949001465,161.75068960012868,161.75068960012868,161.75068960012868,161.75068960012868,161.75068960012868,162.75010860012844,163.73364059999585,d,0,0.9726480999961495,None,,,,,,,,,,,,,,,958053,001,2024-11-26_16h39.59.331,PRIYANSHI.AU2220101_solo.project,2024.1.5,None,2024-11-26 16h40.05.605104 +0530,
-50,a,,,12,0,60,0,,,,,163.74797930009663,,163.73526630015112,163.74797930009663,164.73309849994257,164.73309849994257,164.73309849994257,164.73309849994257,164.74907879997045,165.7508122001309,166.31651580007747,f,0,0.55713009997271,None,,,,,,,,,,,,,,,958053,001,2024-11-26_16h39.59.331,PRIYANSHI.AU2220101_solo.project,2024.1.5,None,2024-11-26 16h40.05.605104 +0530,
-150,s,,,12,1,61,1,,,,,166.33162149996497,,166.3184634000063,166.33162149996497,167.3330959000159,167.3330959000159,167.3330959000159,167.3330959000159,167.3330959000159,168.31656619999558,168.55046830000356,g,0,0.21945600002072752,None,,,,,,,,,,,,,,,958053,001,2024-11-26_16h39.59.331,PRIYANSHI.AU2220101_solo.project,2024.1.5,None,2024-11-26 16h40.05.605104 +0530,
50,d,,,12,2,62,2,,,,,168.56593989999965,,168.55101689998992,168.56593989999965,169.54948409995995,169.54948409995995,169.54948409995995,169.54948409995995,169.56620290013961,170.56596089992672,170.59933190001175,h,0,0.01759819989092648,None,,,,,,,,,,,,,,,958053,001,2024-11-26_16h39.59.331,PRIYANSHI.AU2220101_solo.project,2024.1.5,None,2024-11-26 16h40.05.605104 +0530,
150,f,,,12,3,63,3,,,,,170.61522680008784,,170.59982599993236,170.61522680008784,171.59970220015384,171.59970220015384,171.59970220015384,171.59970220015384,171.61630819994025,172.60037250001915,173.53314230008982,a,0,0.9214798999018967,None,,,,,,,,,,,,,,,958053,001,2024-11-26_16h39.59.331,PRIYANSHI.AU2220101_solo.project,2024.1.5,None,2024-11-26 16h40.05.605104 +0530,
60,g,,,12,4,64,4,,,,,173.54883420001715,,173.53364380006678,173.54883420001715,174.53195290011354,174.53195290011354,174.53195290011354,174.53195290011354,174.54903679993004,175.54906140011735,175.83235300006345,s,0,0.2677762000821531,None,,,,,,,,,,,,,,,958053,001,2024-11-26_16h39.59.331,PRIYANSHI.AU2220101_solo.project,2024.1.5,None,2024-11-26 16h40.05.605104 +0530,
-50,a,,,13,0,65,0,,,,,175.8479106000159,,175.8328112999443,175.8479106000159,176.83257570001297,176.83257570001297,176.83257570001297,176.83257570001297,176.84905880014412,177.8343263999559,178.48243370000273,d,0,0.6382828000932932,None,,,,,,,,,,,,,,,958053,001,2024-11-26_16h39.59.331,PRIYANSHI.AU2220101_solo.project,2024.1.5,None,2024-11-26 16h40.05.605104 +0530,
-150,s,,,13,1,66,1,,,,,178.4981329999864,,178.48301280010492,178.4981329999864,179.48124180012383,179.48124180012383,179.48124180012383,179.48124180012383,179.49941039993428,180.49857020005584,183.23248900007457,g,0,2.7273339999374,None,,,,,,,,,,,,,,,958053,001,2024-11-26_16h39.59.331,PRIYANSHI.AU2220101_solo.project,2024.1.5,None,2024-11-26 16h40.05.605104 +0530,
50,d,,,13,2,67,2,,,,,183.2477182999719,,183.2330597001128,183.2477182999719,184.2314470000565,184.2314470000565,184.2314470000565,184.2314470000565,184.24822510010563,185.2333217000123,186.3480392000638,a,0,1.1045410998631269,None,,,,,,,,,,,,,,,958053,001,2024-11-26_16h39.59.331,PRIYANSHI.AU2220101_solo.project,2024.1.5,None,2024-11-26 16h40.05.605104 +0530,
150,f,,,13,3,68,3,,,,,186.36384120001458,,186.34856380010024,186.36384120001458,187.3487599999644,187.3487599999644,187.3487599999644,187.3487599999644,187.36489730002359,188.34928050008602,189.217733199941,s,0,0.8664315000642091,None,,,,,,,,,,,,,,,958053,001,2024-11-26_16h39.59.331,PRIYANSHI.AU2220101_solo.project,2024.1.5,None,2024-11-26 16h40.05.605104 +0530,
60,g,,,13,4,69,4,,,,,189.23192059993744,,189.21848289994523,189.23192059993744,190.23213819996454,190.23213819996454,190.23213819996454,190.23213819996454,190.23213819996454,191.23218920012005,191.7664377000183,d,0,0.5325595999602228,None,,,,,,,,,,,,,,,958053,001,2024-11-26_16h39.59.331,PRIYANSHI.AU2220101_solo.project,2024.1.5,None,2024-11-26 16h40.05.605104 +0530,
-50,a,,,14,0,70,0,,,,,191.7809574001003,,191.7669854001142,191.7809574001003,192.76530220010318,192.76530220010318,192.76530220010318,192.76530220010318,192.78304539993405,193.76594400010072,194.13494769996032,f,0,0.3655564999207854,None,,,,,,,,,,,,,,,958053,001,2024-11-26_16h39.59.331,PRIYANSHI.AU2220101_solo.project,2024.1.5,None,2024-11-26 16h40.05.605104 +0530,
-150,s,,,14,1,71,1,,,,,194.14831189997494,,194.13566739996895,194.14831189997494,195.14863199996762,195.14863199996762,195.14863199996762,195.14863199996762,195.14863199996762,196.1502948999405,196.9493336000014,g,0,0.789094700012356,None,,,,,,,,,,,,,,,958053,001,2024-11-26_16h39.59.331,PRIYANSHI.AU2220101_solo.project,2024.1.5,None,2024-11-26 16h40.05.605104 +0530,
50,d,,,14,2,72,2,,,,,196.96490080002695,,196.94983950001188,196.96490080002695,197.94883320014924,197.94883320014924,197.94883320014924,197.94883320014924,197.96616240008734,198.96578430011868,199.7980728999246,a,0,0.8200183000881225,None,,,,,,,,,,,,,,,958053,001,2024-11-26_16h39.59.331,PRIYANSHI.AU2220101_solo.project,2024.1.5,None,2024-11-26 16h40.05.605104 +0530,
150,f,,,14,3,73,3,,,,,199.814414100023,,199.7986370001454,199.814414100023,200.79873979999684,200.79873979999684,200.79873979999684,200.79873979999684,200.815509499982,201.79829169996083,202.168555600103,s,0,0.3650273000821471,None,,,,,,,,,,,,,,,958053,001,2024-11-26_16h39.59.331,PRIYANSHI.AU2220101_solo.project,2024.1.5,None,2024-11-26 16h40.05.605104 +0530,
60,g,,,14,4,74,4,,,,,202.1814862000756,,202.17021080013365,202.1814862000756,203.18135299999267,203.18135299999267,203.18135299999267,203.18135299999267,203.18135299999267,204.18195659993216,204.91611230000854,d,0,0.7286704999860376,None,,,,,,,,,,,,,,,958053,001,2024-11-26_16h39.59.331,PRIYANSHI.AU2220101_solo.project,2024.1.5,None,2024-11-26 16h40.05.605104 +0530,
-50,a,,,15,0,75,0,,,,,204.93131659994833,,204.91667840001173,204.93131659994833,205.91504739993252,205.91504739993252,205.91504739993252,205.91504739993252,205.9321276000701,206.9321061000228,207.61594619997777,f,0,0.6755380998365581,None,,,,,,,,,,,,,,,958053,001,2024-11-26_16h39.59.331,PRIYANSHI.AU2220101_solo.project,2024.1.5,None,2024-11-26 16h40.05.605104 +0530,
-150,s,,,15,1,76,1,,,,,207.631186200073,,207.6164661999792,207.631186200073,208.61593420011923,208.61593420011923,208.61593420011923,208.61593420011923,208.63185969996266,209.61599670001306,209.83349040010944,g,0,0.21547229983843863,None,,,,,,,,,,,,,,,958053,001,2024-11-26_16h39.59.331,PRIYANSHI.AU2220101_solo.project,2024.1.5,None,2024-11-26 16h40.05.605104 +0530,
50,d,,,15,2,77,2,,,,,209.84782500006258,,209.83402110007592,209.84782500006258,210.8484917001333,210.8484917001333,210.8484917001333,210.8484917001333,210.8484917001333,211.84702590014786,213.28221029997803,a,0,1.428010200150311,None,,,,,,,,,,,,,,,958053,001,2024-11-26_16h39.59.331,PRIYANSHI.AU2220101_solo.project,2024.1.5,None,2024-11-26 16h40.05.605104 +0530,
150,f,,,15,3,78,3,,,,,213.29819540004246,,213.2826493999455,213.29819540004246,214.28075499995612,214.28075499995612,214.28075499995612,214.28075499995612,214.2972290001344,215.2975526000373,216.39940340002067,s,0,1.0847569999750704,None,,,,,,,,,,,,,,,958053,001,2024-11-26_16h39.59.331,PRIYANSHI.AU2220101_solo.project,2024.1.5,None,2024-11-26 16h40.05.605104 +0530,
60,g,,,15,4,79,4,,,,,216.41474739997648,,216.3999419999309,216.41474739997648,217.41490640002303,217.41490640002303,217.41490640002303,217.41490640002303,217.41490640002303,218.41382930008695,220.04932110011578,f,0,1.6189947000239044,None,,,,,,,,,,,,,,,958053,001,2024-11-26_16h39.59.331,PRIYANSHI.AU2220101_solo.project,2024.1.5,None,2024-11-26 16h40.05.605104 +0530,
-50,a,,,16,0,80,0,,,,,220.06442270008847,,220.0509707001038,220.06442270008847,221.04816040000878,221.04816040000878,221.04816040000878,221.04816040000878,221.06506279995665,222.06591999996454,222.29807629995048,d,0,0.2196911999490112,None,,,,,,,,,,,,,,,958053,001,2024-11-26_16h39.59.331,PRIYANSHI.AU2220101_solo.project,2024.1.5,None,2024-11-26 16h40.05.605104 +0530,
-150,s,,,16,1,81,1,,,,,222.31333769997582,,222.299289500108,222.31333769997582,223.29746649996378,223.29746649996378,223.29746649996378,223.29746649996378,223.31476869992912,224.3140344999265,226.066209099954,s,1,1.7467195000499487,None,,,,,,,,,,,,,,,958053,001,2024-11-26_16h39.59.331,PRIYANSHI.AU2220101_solo.project,2024.1.5,None,2024-11-26 16h40.05.605104 +0530,
50,d,,,16,2,82,2,,,,,226.08092839992605,,226.06687630014494,226.08092839992605,227.08055720012635,227.08055720012635,227.08055720012635,227.08055720012635,227.08055720012635,228.07994040008634,228.14794500009157,a,0,None,None,,,,,,,,,,,,,,,958053,001,2024-11-26_16h39.59.331,PRIYANSHI.AU2220101_solo.project,2024.1.5,None,2024-11-26 16h40.05.605104 +0530,
150,f,,,16,3,83,3,,,,,228.1634162000846,,228.1486798999831,228.1634162000846,229.14835930010304,229.14835930010304,229.14835930010304,229.14835930010304,229.1655153001193,230.14757680008188,231.21668480010703,f,1,1.0647593999747187,None,,,,,,,,,,,,,,,958053,001,2024-11-26_16h39.59.331,PRIYANSHI.AU2220101_solo.project,2024.1.5,None,2024-11-26 16h40.05.605104 +0530,
60,g,,,16,4,84,4,,,,,231.23016380006447,,231.21748410002328,231.23016380006447,232.23043960006908,232.23043960006908,232.23043960006908,232.23043960006908,232.23043960006908,233.2308271001093,234.49728220002726,g,1,1.251800699857995,None,,,,,,,,,,,,,,,958053,001,2024-11-26_16h39.59.331,PRIYANSHI.AU2220101_solo.project,2024.1.5,None,2024-11-26 16h40.05.605104 +0530,
-50,a,,,17,0,85,0,,,,,234.51383109996095,,234.49795119999908,234.51383109996095,235.49753209995106,235.49753209995106,235.49753209995106,235.49753209995106,235.51405420014635,236.49731809995137,237.98211630014703,a,1,1.4819070000667125,None,,,,,,,,,,,,,,,958053,001,2024-11-26_16h39.59.331,PRIYANSHI.AU2220101_solo.project,2024.1.5,None,2024-11-26 16h40.05.605104 +0530,
-150,s,,,17,1,86,1,,,,,237.99730350007303,,237.9825969999656,237.99730350007303,238.98027800000273,238.98027800000273,238.98027800000273,238.98027800000273,238.9974720000755,239.99651850014925,241.56592179997824,s,1,1.5639935999643058,None,,,,,,,,,,,,,,,958053,001,2024-11-26_16h39.59.331,PRIYANSHI.AU2220101_solo.project,2024.1.5,None,2024-11-26 16h40.05.605104 +0530,
50,d,,,17,2,87,2,,,,,241.58041719999164,,241.56721489992924,241.58041719999164,242.5803851999808,242.5803851999808,242.5803851999808,242.5803851999808,242.5803851999808,243.5798246001359,244.69840490003116,f,0,1.1051687998697162,None,,,,,,,,,,,,,,,958053,001,2024-11-26_16h39.59.331,PRIYANSHI.AU2220101_solo.project,2024.1.5,None,2024-11-26 16h40.05.605104 +0530,
150,f,,,17,3,88,3,,,,,244.7146544000134,,244.6989073001314,244.7146544000134,245.69766910001636,245.69766910001636,245.69766910001636,245.69766910001636,245.7137144000735,246.71299319993705,248.2144399001263,a,0,1.4933215999044478,None,,,,,,,,,,,,,,,958053,001,2024-11-26_16h39.59.331,PRIYANSHI.AU2220101_solo.project,2024.1.5,None,2024-11-26 16h40.05.605104 +0530,
60,g,,,17,4,89,4,,,,,248.22930449992418,,248.2149048000574,248.22930449992418,249.21470550005324,249.21470550005324,249.21470550005324,249.21470550005324,249.23051150003448,250.2304954000283,251.49706339999102,g,1,1.2559887000825256,None,,,,,,,,,,,,,,,958053,001,2024-11-26_16h39.59.331,PRIYANSHI.AU2220101_solo.project,2024.1.5,None,2024-11-26 16h40.05.605104 +0530,
-50,a,,,18,0,90,0,,,,,251.51293980004266,,251.49758930015378,251.51293980004266,252.49729320011102,252.49729320011102,252.49729320011102,252.49729320011102,252.51352709997445,253.49682420003228,255.5303609999828,a,1,2.018503800034523,None,,,,,,,,,,,,,,,958053,001,2024-11-26_16h39.59.331,PRIYANSHI.AU2220101_solo.project,2024.1.5,None,2024-11-26 16h40.05.605104 +0530,
-150,s,,,18,1,91,1,,,,,255.54609380010515,,255.53192230011337,255.54609380010515,256.5479795001447,256.5479795001447,256.5479795001447,256.5479795001447,256.5479795001447,257.54685000004247,258.6638035001233,s,1,1.1039491000119597,None,,,,,,,,,,,,,,,958053,001,2024-11-26_16h39.59.331,PRIYANSHI.AU2220101_solo.project,2024.1.5,None,2024-11-26 16h40.05.605104 +0530,
50,d,,,18,2,92,2,,,,,258.6793836001307,,258.66426860005595,258.6793836001307,259.67963250004686,259.67963250004686,259.67963250004686,259.67963250004686,259.67963250004686,260.6632545001339,260.9298791999463,g,0,0.25468640006147325,None,,,,,,,,,,,,,,,958053,001,2024-11-26_16h39.59.331,PRIYANSHI.AU2220101_solo.project,2024.1.5,None,2024-11-26 16h40.05.605104 +0530,
150,f,,,18,3,93,3,,,,,260.9461712001357,,260.9305380000733,260.9461712001357,261.9295378001407,261.9295378001407,261.9295378001407,261.9295378001407,261.94660239992663,262.92999910004437,263.23051810008474,f,1,0.28913909988477826,None,,,,,,,,,,,,,,,958053,001,2024-11-26_16h39.59.331,PRIYANSHI.AU2220101_solo.project,2024.1.5,None,2024-11-26 16h40.05.605104 +0530,
60,g,,,18,4,94,4,,,,,263.2466722999234,,263.231004799949,263.2466722999234,264.2307404000312,264.2307404000312,264.2307404000312,264.2307404000312,264.2466001000721,265.2303433001507,265.54728569998406,d,0,0.31224279990419745,None,,,,,,,,,,,,,,,958053,001,2024-11-26_16h39.59.331,PRIYANSHI.AU2220101_solo.project,2024.1.5,None,2024-11-26 16h40.05.605104 +0530,
-50,a,,,19,0,95,0,,,,,265.5622970999684,,265.54790080012754,265.5622970999684,266.5457001000177,266.5457001000177,266.5457001000177,266.5457001000177,266.5623673000373,267.5469089001417,268.81399960001,s,0,1.26139450003393,None,,,,,,,,,,,,,,,958053,001,2024-11-26_16h39.59.331,PRIYANSHI.AU2220101_solo.project,2024.1.5,None,2024-11-26 16h40.05.605104 +0530,
-150,s,,,19,1,96,1,,,,,268.82882059994154,,268.81445479998365,268.82882059994154,269.8289719999302,269.8289719999302,269.8289719999302,269.8289719999302,269.8289719999302,270.813419500133,270.9648303000722,a,0,0.14861849998123944,None,,,,,,,,,,,,,,,958053,001,2024-11-26_16h39.59.331,PRIYANSHI.AU2220101_solo.project,2024.1.5,None,2024-11-26 16h40.05.605104 +0530,
50,d,,,19,2,97,2,,,,,270.98003190010786,,270.96595700015314,270.98003190010786,271.9793050000444,271.9793050000444,271.9793050000444,271.9793050000444,271.9955804999918,272.98003920004703,273.46434139995836,s,0,0.47506120009347796,None,,,,,,,,,,,,,,,958053,001,2024-11-26_16h39.59.331,PRIYANSHI.AU2220101_solo.project,2024.1.5,None,2024-11-26 16h40.05.605104 +0530,
150,f,,,19,3,98,3,,,,,273.4793780001346,,273.4657269001473,273.4793780001346,274.4797531000804,274.4797531000804,274.4797531000804,274.4797531000804,274.4797531000804,275.4797052000649,276.16442769998685,d,0,0.682778500020504,None,,,,,,,,,,,,,,,958053,001,2024-11-26_16h39.59.331,PRIYANSHI.AU2220101_solo.project,2024.1.5,None,2024-11-26 16h40.05.605104 +0530,
60,g,,,19,4,99,4,,,,,276.17873140005395,,276.1650334999431,276.17873140005395,277.18001589993946,277.18001589993946,277.18001589993946,277.18001589993946,277.18001589993946,278.1804239000194,278.2141941001173,f,0,0.02794299996457994,None,,,,,,,,,,,,,,,958053,001,2024-11-26_16h39.59.331,PRIYANSHI.AU2220101_solo.project,2024.1.5,None,2024-11-26 16h40.05.605104 +0530,
,,150,b,,,,,0,0,0,4,278.2286066999659,,,,,,,,,,,,,,,278.22118870005943,278.2286066999659,279.2289641001262,279.2289641001262,279.2289641001262,279.2289641001262,279.2289641001262,279.2289641001262,280.2292339000851,281.94604820013046,f,0,1.7072272999212146,None,958053,001,2024-11-26_16h39.59.331,PRIYANSHI.AU2220101_solo.project,2024.1.5,None,2024-11-26 16h40.05.605104 +0530,
,,50,c,,,,,0,1,1,2,281.9618073001038,,,,,,,,,,,,,,,281.9468996000942,281.9618073001038,282.9632991000544,282.94541590008885,282.94541590008885,282.94541590008885,282.94541590008885,282.94541590008885,283.9460988000501,284.8308669999242,s,0,0.8790301999542862,None,958053,001,2024-11-26_16h39.59.331,PRIYANSHI.AU2220101_solo.project,2024.1.5,None,2024-11-26 16h40.05.605104 +0530,
,,-150,z,,,,,0,2,2,0,284.8464375999756,,,,,,,,,,,,,,,284.8316236000974,284.8464375999756,285.84536219993606,285.84536219993606,285.84536219993606,285.84536219993606,285.84536219993606,285.84536219993606,286.8454440999776,288.0973976999521,s,0,1.246809900039807,None,958053,001,2024-11-26_16h39.59.331,PRIYANSHI.AU2220101_solo.project,2024.1.5,None,2024-11-26 16h40.05.605104 +0530,
,,60,v,,,,,0,3,3,3,288.11256060004234,,,,,,,,,,,,,,,288.09808590007015,288.11256060004234,289.1127702000085,289.0967669999227,289.0967669999227,289.0967669999227,289.0967669999227,289.0967669999227,290.11185010010377,291.7303156000562,f,0,1.6122242000419647,None,958053,001,2024-11-26_16h39.59.331,PRIYANSHI.AU2220101_solo.project,2024.1.5,None,2024-11-26 16h40.05.605104 +0530,
,,50,c,,,,,0,4,4,2,291.7457828000188,,,,,,,,,,,,,,,291.7308273999952,291.7457828000188,292.74576740013435,292.74576740013435,292.74576740013435,292.74576740013435,292.74576740013435,292.74576740013435,293.7461369000375,294.3121688000392,g,1,0.5522869999986142,None,958053,001,2024-11-26_16h39.59.331,PRIYANSHI.AU2220101_solo.project,2024.1.5,None,2024-11-26 16h40.05.605104 +0530,
,,150,b,,,,,1,0,5,4,294.328519300092,,,,,,,,,,,,,,,294.3127502000425,294.328519300092,295.3288215000648,295.3119151999708,295.3119151999708,295.3119151999708,295.3119151999708,295.3119151999708,296.31229030014947,297.16358679998666,s,0,0.836579900002107,None,958053,001,2024-11-26_16h39.59.331,PRIYANSHI.AU2220101_solo.project,2024.1.5,None,2024-11-26 16h40.05.605104 +0530,
,,60,v,,,,,1,1,6,3,297.179344000062,,,,,,,,,,,,,,,297.1642180001363,297.179344000062,298.1794493999332,298.1794493999332,298.1794493999332,298.1794493999332,298.1794493999332,298.1794493999332,299.1788755999878,300.29684540000744,f,0,1.1129692001268268,None,958053,001,2024-11-26_16h39.59.331,PRIYANSHI.AU2220101_solo.project,2024.1.5,None,2024-11-26 16h40.05.605104 +0530,
,,-50,x,,,,,1,2,7,1,300.31259869993664,,,,,,,,,,,,,,,300.2973543999251,300.31259869993664,301.3113615999464,301.3113615999464,301.3113615999464,301.3113615999464,301.3113615999464,301.3113615999464,302.3127069999464,303.5647938000038,z,0,1.2473581999074668,None,958053,001,2024-11-26_16h39.59.331,PRIYANSHI.AU2220101_solo.project,2024.1.5,None,2024-11-26 16h40.05.605104 +0530,
,,50,c,,,,,1,3,8,2,303.5781698001083,,,,,,,,,,,,,,,303.56678880006075,303.5781698001083,304.57851350004785,304.57851350004785,304.57851350004785,304.57851350004785,304.57851350004785,304.57851350004785,305.57971810013987,306.7468316000886,c,0,1.1588457999750972,None,958053,001,2024-11-26_16h39.59.331,PRIYANSHI.AU2220101_solo.project,2024.1.5,None,2024-11-26 16h40.05.605104 +0530,
,,50,c,,,,,1,4,9,2,306.76189850014634,,,,,,,,,,,,,,,306.74735360010527,306.76189850014634,307.7615712999832,307.7615712999832,307.7615712999832,307.7615712999832,307.7615712999832,307.7615712999832,308.76133899996057,312.97971680015326,v,0,4.202674099942669,None,958053,001,2024-11-26_16h39.59.331,PRIYANSHI.AU2220101_solo.project,2024.1.5,None,2024-11-26 16h40.05.605104 +0530,
,,50,c,,,,,2,0,10,2,312.99474520003423,,,,,,,,,,,,,,,312.98156540002674,312.99474520003423,313.99653290002607,313.99653290002607,313.99653290002607,313.99653290002607,313.99653290002607,313.99653290002607,314.9958943000529,316.36189540009946,b,0,1.353554300032556,None,958053,001,2024-11-26_16h39.59.331,PRIYANSHI.AU2220101_solo.project,2024.1.5,None,2024-11-26 16h40.05.605104 +0530,
,,50,c,,,,,2,1,11,2,316.37779180007055,,,,,,,,,,,,,,,316.36239550006576,316.37779180007055,317.3789598001167,317.3620585000608,317.3620585000608,317.3620585000608,317.3620585000608,317.3620585000608,318.3630316001363,319.1787847999949,x,0,0.8029233000706881,None,958053,001,2024-11-26_16h39.59.331,PRIYANSHI.AU2220101_solo.project,2024.1.5,None,2024-11-26 16h40.05.605104 +0530,
,,50,c,,,,,2,2,12,2,319.1944870001171,,,,,,,,,,,,,,,319.17927530012093,319.1944870001171,320.19505260000005,320.1778400000185,320.1778400000185,320.1778400000185,320.1778400000185,320.1778400000185,321.1793470000848,321.71282720007,z,0,0.5202561998739839,None,958053,001,2024-11-26_16h39.59.331,PRIYANSHI.AU2220101_solo.project,2024.1.5,None,2024-11-26 16h40.05.605104 +0530,
,,50,c,,,,,2,3,13,2,321.72880170005374,,,,,,,,,,,,,,,321.7139985000249,321.72880170005374,322.7283447999507,322.71242060000077,322.71242060000077,322.71242060000077,322.71242060000077,322.71242060000077,323.72767730010673,325.7625579999294,c,0,2.0200074000749737,None,958053,001,2024-11-26_16h39.59.331,PRIYANSHI.AU2220101_solo.project,2024.1.5,None,2024-11-26 16h40.05.605104 +0530,
,,60,v,,,,,2,4,14,3,325.7784156999551,,,,,,,,,,,,,,,325.7630541000981,325.7784156999551,326.7784647999797,326.76213310007006,326.76213310007006,326.76213310007006,326.76213310007006,326.76213310007006,327.7614919000771,328.67836629995145,v,0,0.907055500196293,None,958053,001,2024-11-26_16h39.59.331,PRIYANSHI.AU2220101_solo.project,2024.1.5,None,2024-11-26 16h40.05.605104 +0530,
,,-150,z,,,,,3,0,15,0,328.69408029993065,,,,,,,,,,,,,,,328.67884960002266,328.69408029993065,329.6956174999941,329.67927190009505,329.67927190009505,329.67927190009505,329.67927190009505,329.67927190009505,330.6792630001437,331.1115606999956,b,0,0.4176318000536412,None,958053,001,2024-11-26_16h39.59.331,PRIYANSHI.AU2220101_solo.project,2024.1.5,None,2024-11-26 16h40.05.605104 +0530,
,,60,v,,,,,3,1,16,3,331.1276173000224,,,,,,,,,,,,,,,331.1120575000532,331.1276173000224,332.1281469000969,332.1112613999285,332.1112613999285,332.1112613999285,332.1112613999285,332.1112613999285,333.1115081999451,333.39554610010237,x,0,0.2757530000526458,None,958053,001,2024-11-26_16h39.59.331,PRIYANSHI.AU2220101_solo.project,2024.1.5,None,2024-11-26 16h40.05.605104 +0530,
,,-150,z,,,,,3,2,17,0,333.4111764000263,,,,,,,,,,,,,,,333.3964400999248,333.4111764000263,334.4122085000854,334.3956417001318,334.3956417001318,334.3956417001318,334.3956417001318,334.3956417001318,335.41047700005583,337.38014080002904,b,0,1.9672358001116663,None,958053,001,2024-11-26_16h39.59.331,PRIYANSHI.AU2220101_solo.project,2024.1.5,None,2024-11-26 16h40.05.605104 +0530,
,,-50,x,,,,,3,3,18,1,337.3947314999532,,,,,,,,,,,,,,,337.3807882000692,337.3947314999532,338.4109066000674,338.3939497000538,338.3939497000538,338.3939497000538,338.3939497000538,338.3939497000538,339.39472630014643,340.16321890009567,z,0,0.7659863999579102,None,958053,001,2024-11-26_16h39.59.331,PRIYANSHI.AU2220101_solo.project,2024.1.5,None,2024-11-26 16h40.05.605104 +0530,
,,-50,x,,,,,3,4,19,1,340.1776181999594,,,,,,,,,,,,,,,340.16375269996934,340.1776181999594,341.1773735000752,341.1773735000752,341.1773735000752,341.1773735000752,341.1773735000752,341.1773735000752,342.17707500001416,342.51094870013185,x,0,None,None,958053,001,2024-11-26_16h39.59.331,PRIYANSHI.AU2220101_solo.project,2024.1.5,None,2024-11-26 16h40.05.605104 +0530,
,,-50,x,,,,,4,0,20,1,342.5274199999403,,,,,,,,,,,,,,,342.51179810008034,342.5274199999403,343.5286002999637,343.5110838999972,343.5110838999972,343.5110838999972,343.5110838999972,343.5110838999972,344.51267570001073,344.99494420015253,c,0,None,None,958053,001,2024-11-26_16h39.59.331,PRIYANSHI.AU2220101_solo.project,2024.1.5,None,2024-11-26 16h40.05.605104 +0530,
,,60,v,,,,,4,1,21,3,345.0111394999549,,,,,,,,,,,,,,,344.9953910000622,345.0111394999549,346.01113190012984,345.9939973000437,345.9939973000437,345.9939973000437,345.9939973000437,345.9939973000437,346.99437230010517,347.3304129000753,v,0,0.3306506001390517,None,958053,001,2024-11-26_16h39.59.331,PRIYANSHI.AU2220101_solo.project,2024.1.5,None,2024-11-26 16h40.05.605104 +0530,
,,150,b,,,,,4,2,22,4,347.3443364999257,,,,,,,,,,,,,,,347.3314875999931,347.3443364999257,348.34517490002327,348.34517490002327,348.34517490002327,348.34517490002327,348.34517490002327,348.34517490002327,349.34525720006786,349.37943090009503,b,0,0.02959210006520152,None,958053,001,2024-11-26_16h39.59.331,PRIYANSHI.AU2220101_solo.project,2024.1.5,None,2024-11-26 16h40.05.605104 +0530,
,,50,c,,,,,4,3,23,2,349.3933777001221,,,,,,,,,,,,,,,349.38001610012725,349.3933777001221,350.39460820006207,350.39460820006207,350.39460820006207,350.39460820006207,350.39460820006207,350.39460820006207,351.3945092000067,351.7621822000947,z,0,0.356231999816373,None,958053,001,2024-11-26_16h39.59.331,PRIYANSHI.AU2220101_solo.project,2024.1.5,None,2024-11-26 16h40.05.605104 +0530,
,,60,v,,,,,4,4,24,3,351.7773215000052,,,,,,,,,,,,,,,351.7626898000017,351.7773215000052,352.7780168999452,352.7780168999452,352.7780168999452,352.7780168999452,352.7780168999452,352.7780168999452,353.77655480010435,355.0794117001351,x,0,1.2991386998910457,None,958053,001,2024-11-26_16h39.59.331,PRIYANSHI.AU2220101_solo.project,2024.1.5,None,2024-11-26 16h40.05.605104 +0530,
,,-50,x,,,,,5,0,25,1,355.09434289997444,,,,,,,,,,,,,,,355.0811255001463,355.09434289997444,356.0949001000263,356.0949001000263,356.0949001000263,356.0949001000263,356.0949001000263,356.0949001000263,357.09326969995163,359.0283689000644,v,0,1.9214964997954667,None,958053,001,2024-11-26_16h39.59.331,PRIYANSHI.AU2220101_solo.project,2024.1.5,None,2024-11-26 16h40.05.605104 +0530,
,,-150,z,,,,,5,1,26,0,359.04395950003527,,,,,,,,,,,,,,,359.02884660009295,359.04395950003527,360.04423899995163,360.0276375000831,360.0276375000831,360.0276375000831,360.0276375000831,360.0276375000831,361.0431784000248,362.27794290008023,b,0,1.2281264998018742,None,958053,001,2024-11-26_16h39.59.331,PRIYANSHI.AU2220101_solo.project,2024.1.5,None,2024-11-26 16h40.05.605104 +0530,
,,150,b,,,,,5,2,27,4,362.2935182999354,,,,,,,,,,,,,,,362.27912289998494,362.2935182999354,363.2943619999569,363.2778121000156,363.2778121000156,363.2778121000156,363.2778121000156,363.2778121000156,364.2945542000234,364.3277396999765,z,0,0.019422800047323108,None,958053,001,2024-11-26_16h39.59.331,PRIYANSHI.AU2220101_solo.project,2024.1.5,None,2024-11-26 16h40.05.605104 +0530,
,,-150,z,,,,,5,3,28,0,364.34427070012316,,,,,,,,,,,,,,,364.3295247000642,364.34427070012316,365.34388910001144,365.32765659992583,365.32765659992583,365.32765659992583,365.32765659992583,365.32765659992583,366.32685249997303,366.57883609994315,x,0,None,None,958053,001,2024-11-26_16h39.59.331,PRIYANSHI.AU2220101_solo.project,2024.1.5,None,2024-11-26 16h40.05.605104 +0530,
,,-50,x,,,,,5,4,29,1,366.5936603001319,,,,,,,,,,,,,,,366.57928079995327,366.5936603001319,367.59479720005766,367.59479720005766,367.59479720005766,367.59479720005766,367.59479720005766,367.59479720005766,368.5939462999813,368.92731230007485,c,0,0.3286111999768764,None,958053,001,2024-11-26_16h39.59.331,PRIYANSHI.AU2220101_solo.project,2024.1.5,None,2024-11-26 16h40.05.605104 +0530,
,,50,c,,,,,6,0,30,2,368.9427323001437,,,,,,,,,,,,,,,368.92783030006103,368.9427323001437,369.9433009000495,369.92641910002567,369.92641910002567,369.92641910002567,369.92641910002567,369.92641910002567,370.9280373000074,371.01111009996384,v,0,0.0686435999814421,None,958053,001,2024-11-26_16h39.59.331,PRIYANSHI.AU2220101_solo.project,2024.1.5,None,2024-11-26 16h40.05.605104 +0530,
,,-150,z,,,,,6,1,31,0,371.0286266000476,,,,,,,,,,,,,,,371.0117194999475,371.0286266000476,372.04410240007564,372.01065240008757,372.01065240008757,372.01065240008757,372.01065240008757,372.01065240008757,373.02646109997295,374.32697309996,b,0,1.2915167000610381,None,958053,001,2024-11-26_16h39.59.331,PRIYANSHI.AU2220101_solo.project,2024.1.5,None,2024-11-26 16h40.05.605104 +0530,
,,60,v,,,,,6,2,32,3,374.3434750000015,,,,,,,,,,,,,,,374.3274463999551,374.3434750000015,375.3434067000635,375.3434067000635,375.3434067000635,375.3434067000635,375.3434067000635,375.3434067000635,376.32669309992343,378.3776060999371,z,0,2.0374133998993784,None,958053,001,2024-11-26_16h39.59.331,PRIYANSHI.AU2220101_solo.project,2024.1.5,None,2024-11-26 16h40.05.605104 +0530,
,,150,b,,,,,6,3,33,4,378.3927575000562,,,,,,,,,,,,,,,378.37832110002637,378.3927575000562,379.3936570000369,379.37782329996116,379.37782329996116,379.37782329996116,379.37782329996116,379.37782329996116,380.3773914000485,381.12858250015415,x,0,0.7411535000428557,None,958053,001,2024-11-26_16h39.59.331,PRIYANSHI.AU2220101_solo.project,2024.1.5,None,2024-11-26 16h40.05.605104 +0530,
,,-50,x,,,,,6,4,34,1,381.14343880000524,,,,,,,,,,,,,,,381.1306996999774,381.14343880000524,382.1429628999904,382.1429628999904,382.1429628999904,382.1429628999904,382.1429628999904,382.1429628999904,383.14361470006406,385.34582930011675,v,0,2.196375400060788,None,958053,001,2024-11-26_16h39.59.331,PRIYANSHI.AU2220101_solo.project,2024.1.5,None,2024-11-26 16h40.05.605104 +0530,
,,50,c,,,,,7,0,35,2,385.3596324000973,,,,,,,,,,,,,,,385.34645069995895,385.3596324000973,386.3606482001487,386.3606482001487,386.3606482001487,386.3606482001487,386.3606482001487,386.3606482001487,387.3607149000745,387.3930258001201,v,0,0.02338379994034767,None,958053,001,2024-11-26_16h39.59.331,PRIYANSHI.AU2220101_solo.project,2024.1.5,None,2024-11-26 16h40.05.605104 +0530,
,,-50,x,,,,,7,1,36,1,387.40908579993993,,,,,,,,,,,,,,,387.39439449994825,387.40908579993993,388.4106829999946,388.39432339998893,388.39432339998893,388.39432339998893,388.39432339998893,388.39432339998893,389.3942384000402,389.56071320013143,b,0,0.15114749991334975,None,958053,001,2024-11-26_16h39.59.331,PRIYANSHI.AU2220101_solo.project,2024.1.5,None,2024-11-26 16h40.05.605104 +0530,
,,50,c,,,,,7,2,37,2,389.57584990002215,,,,,,,,,,,,,,,389.5613305999432,389.57584990002215,390.57670500013046,390.56024480005726,390.56024480005726,390.56024480005726,390.56024480005726,390.56024480005726,391.5601389000658,393.32738110003993,x,0,1.7576522000599653,None,958053,001,2024-11-26_16h39.59.331,PRIYANSHI.AU2220101_solo.project,2024.1.5,None,2024-11-26 16h40.05.605104 +0530,
,,-150,z,,,,,7,3,38,0,393.3431369001046,,,,,,,,,,,,,,,393.3278421999421,393.3431369001046,394.34293460007757,394.32722610002384,394.32722610002384,394.32722610002384,394.32722610002384,394.32722610002384,395.3429570000153,395.96084970002994,c,0,0.6111355999018997,None,958053,001,2024-11-26_16h39.59.331,PRIYANSHI.AU2220101_solo.project,2024.1.5,None,2024-11-26 16h40.05.605104 +0530,
,,-50,x,,,,,7,4,39,1,395.9765866000671,,,,,,,,,,,,,,,395.96133580012247,395.9765866000671,396.9765654001385,396.9609938999638,396.9609938999638,396.9609938999638,396.9609938999638,396.9609938999638,397.95977940014564,399.0767767999787,v,0,1.1113513999152929,None,958053,001,2024-11-26_16h39.59.331,PRIYANSHI.AU2220101_solo.project,2024.1.5,None,2024-11-26 16h40.05.605104 +0530,
,,60,v,,,,,8,0,40,3,399.0921341001522,,,,,,,,,,,,,,,399.07731770002283,399.0921341001522,400.0930246000644,400.07668070006184,400.07668070006184,400.07668070006184,400.07668070006184,400.07668070006184,401.07704870007,403.09393360000104,b,0,2.008888400159776,None,958053,001,2024-11-26_16h39.59.331,PRIYANSHI.AU2220101_solo.project,2024.1.5,None,2024-11-26 16h40.05.605104 +0530,
,,150,b,,,,,8,1,41,4,403.1084007001482,,,,,,,,,,,,,,,403.0945620001294,403.1084007001482,404.10932129994035,404.0931619000621,404.0931619000621,404.0931619000621,404.0931619000621,404.0931619000621,405.0934923000168,405.5445088001434,z,0,0.44700970011763275,None,958053,001,2024-11-26_16h39.59.331,PRIYANSHI.AU2220101_solo.project,2024.1.5,None,2024-11-26 16h40.05.605104 +0530,
,,150,b,,,,,8,2,42,4,405.55853509996086,,,,,,,,,,,,,,,405.5450137001462,405.55853509996086,406.5590230000671,406.5590230000671,406.5590230000671,406.5590230000671,406.5590230000671,406.5590230000671,407.55815299996175,408.0439931000583,x,0,0.4775243999902159,None,958053,001,2024-11-26_16h39.59.331,PRIYANSHI.AU2220101_solo.project,2024.1.5,None,2024-11-26 16h40.05.605104 +0530,
,,150,b,,,,,8,3,43,4,408.0594921000302,,,,,,,,,,,,,,,408.0447975001298,408.0594921000302,409.0598009999376,409.0598009999376,409.0598009999376,409.0598009999376,409.0598009999376,409.0598009999376,410.05948520009406,410.9793972999323,c,0,0.909801899921149,None,958053,001,2024-11-26_16h39.59.331,PRIYANSHI.AU2220101_solo.project,2024.1.5,None,2024-11-26 16h40.05.605104 +0530,
,,-150,z,,,,,8,4,44,0,410.99245880008675,,,,,,,,,,,,,,,410.98082719999366,410.99245880008675,411.9935620999895,411.9935620999895,411.9935620999895,411.9935620999895,411.9935620999895,411.9935620999895,412.99251340003684,413.476243800018,v,0,0.4754511001519859,None,958053,001,2024-11-26_16h39.59.331,PRIYANSHI.AU2220101_solo.project,2024.1.5,None,2024-11-26 16h40.05.605104 +0530,
,,-150,z,,,,,9,0,45,0,413.49146239995025,,,,,,,,,,,,,,,413.4768073000014,413.49146239995025,414.49321010010317,414.47591109992936,414.47591109992936,414.47591109992936,414.47591109992936,414.47591109992936,415.4765751999803,415.5272695000749,b,0,0.0343838999979198,None,958053,001,2024-11-26_16h39.59.331,PRIYANSHI.AU2220101_solo.project,2024.1.5,None,2024-11-26 16h40.05.605104 +0530,
,,150,b,,,,,9,1,46,4,415.5423429000657,,,,,,,,,,,,,,,415.5290475001093,415.5423429000657,416.5427942001261,416.5427942001261,416.5427942001261,416.5427942001261,416.5427942001261,416.5427942001261,417.541826199973,417.7593956999481,z,0,0.20121120009571314,None,958053,001,2024-11-26_16h39.59.331,PRIYANSHI.AU2220101_solo.project,2024.1.5,None,2024-11-26 16h40.05.605104 +0530,
,,60,v,,,,,9,2,47,3,417.7751011000946,,,,,,,,,,,,,,,417.76042890013196,417.7751011000946,418.77595399995334,418.7585525000468,418.7585525000468,418.7585525000468,418.7585525000468,418.7585525000468,419.7591534999665,420.1099251001142,x,0,0.3408476999029517,None,958053,001,2024-11-26_16h39.59.331,PRIYANSHI.AU2220101_solo.project,2024.1.5,None,2024-11-26 16h40.05.605104 +0530,
,,150,b,,,,,9,3,48,4,420.1257174999919,,,,,,,,,,,,,,,420.1104252000805,420.1257174999919,421.1256359999534,421.1080930000171,421.1080930000171,421.1080930000171,421.1080930000171,421.1080930000171,422.10877409996465,423.04350359993987,c,0,0.9292752000037581,None,958053,001,2024-11-26_16h39.59.331,PRIYANSHI.AU2220101_solo.project,2024.1.5,None,2024-11-26 16h40.05.605104 +0530,
,,150,b,,,,,9,4,49,4,423.05864410009235,,,,,,,,,,,,,,,423.0440845999401,423.05864410009235,424.05988029995933,424.04278849996626,424.04278849996626,424.04278849996626,424.04278849996626,424.04278849996626,425.042283100076,425.326484200079,v,0,0.26991320005618036,None,958053,001,2024-11-26_16h39.59.331,PRIYANSHI.AU2220101_solo.project,2024.1.5,None,2024-11-26 16h40.05.605104 +0530,
,,-50,x,,,,,10,0,50,1,425.34213520004414,,,,,,,,,,,,,,,425.32703960011713,425.34213520004414,426.3428789000027,426.3258241000585,426.3258241000585,426.3258241000585,426.3258241000585,426.3258241000585,427.3426209001336,429.0121007999405,z,0,1.6661861999891698,None,958053,001,2024-11-26_16h39.59.331,PRIYANSHI.AU2220101_solo.project,2024.1.5,None,2024-11-26 16h40.05.605104 +0530,
,,60,v,,,,,10,1,51,3,429.02446709992364,,,,,,,,,,,,,,,429.01300669997,429.02446709992364,430.0250466000289,430.0250466000289,430.0250466000289,430.0250466000289,430.0250466000289,430.0250466000289,431.02572089992464,431.1096592999529,x,0,0.07002780004404485,None,958053,001,2024-11-26_16h39.59.331,PRIYANSHI.AU2220101_solo.project,2024.1.5,None,2024-11-26 16h40.05.605104 +0530,
,,-150,z,,,,,10,2,52,0,431.12535999994725,,,,,,,,,,,,,,,431.1102014000062,431.12535999994725,432.12601849995553,432.11021160008386,432.11021160008386,432.11021160008386,432.11021160008386,432.11021160008386,433.1253255000338,433.49216150003485,c,0,0.35263610002584755,None,958053,001,2024-11-26_16h39.59.331,PRIYANSHI.AU2220101_solo.project,2024.1.5,None,2024-11-26 16h40.05.605104 +0530,
,,-150,z,,,,,10,3,53,0,433.50785840000026,,,,,,,,,,,,,,,433.4926173000131,433.50785840000026,434.50950810010545,434.4919247000944,434.4919247000944,434.4919247000944,434.4919247000944,434.4919247000944,435.49191779992543,437.89187190006487,b,0,2.390296599827707,None,958053,001,2024-11-26_16h39.59.331,PRIYANSHI.AU2220101_solo.project,2024.1.5,None,2024-11-26 16h40.05.605104 +0530,
,,-150,z,,,,,10,4,54,0,437.907914099982,,,,,,,,,,,,,,,437.89231280004606,437.907914099982,438.90839160000905,438.8914189999923,438.8914189999923,438.8914189999923,438.8914189999923,438.8914189999923,439.89243030012585,441.3923329000827,z,0,1.4849545999895781,None,958053,001,2024-11-26_16h39.59.331,PRIYANSHI.AU2220101_solo.project,2024.1.5,None,2024-11-26 16h40.05.605104 +0530,
,,60,v,,,,,11,0,55,3,441.40810110000893,,,,,,,,,,,,,,,441.39380150008947,441.40810110000893,442.40847310004756,442.3919083001092,442.3919083001092,442.3919083001092,442.3919083001092,442.3919083001092,443.40984819992445,444.32619479997084,x,0,0.9108311999589205,None,958053,001,2024-11-26_16h39.59.331,PRIYANSHI.AU2220101_solo.project,2024.1.5,None,2024-11-26 16h40.05.605104 +0530,
,,-50,x,,,,,11,1,56,1,444.3418569001369,,,,,,,,,,,,,,,444.3269357001409,444.3418569001369,445.3410430001095,445.3410430001095,445.3410430001095,445.3410430001095,445.3410430001095,445.3410430001095,446.3417553000618,447.8602658000309,c,0,1.5146321000065655,None,958053,001,2024-11-26_16h39.59.331,PRIYANSHI.AU2220101_solo.project,2024.1.5,None,2024-11-26 16h40.05.605104 +0530,
,,-50,x,,,,,11,2,57,1,447.87492260010913,,,,,,,,,,,,,,,447.86090450012125,447.87492260010913,448.8756463001482,448.8756463001482,448.8756463001482,448.8756463001482,448.8756463001482,448.8756463001482,449.8746120999567,450.6748530000914,v,0,0.7937905001454055,None,958053,001,2024-11-26_16h39.59.331,PRIYANSHI.AU2220101_solo.project,2024.1.5,None,2024-11-26 16h40.05.605104 +0530,
,,150,b,,,,,11,3,58,4,450.69081760011613,,,,,,,,,,,,,,,450.67534049996175,450.69081760011613,451.6924016000703,451.6756361001171,451.6756361001171,451.6756361001171,451.6756361001171,451.6756361001171,452.67552309995517,453.36063849995844,b,0,0.6824495999608189,None,958053,001,2024-11-26_16h39.59.331,PRIYANSHI.AU2220101_solo.project,2024.1.5,None,2024-11-26 16h40.05.605104 +0530,
,,150,b,,,,,11,4,59,4,453.3739310000092,,,,,,,,,,,,,,,453.3618419999257,453.3739310000092,454.3746797000058,454.3746797000058,454.3746797000058,454.3746797000058,454.3746797000058,454.3746797000058,455.3749367001001,456.8095363001339,z,0,1.4287417000159621,None,958053,001,2024-11-26_16h39.59.331,PRIYANSHI.AU2220101_solo.project,2024.1.5,None,2024-11-26 16h40.05.605104 +0530,
,,-50,x,,,,,12,0,60,1,456.8248163999524,,,,,,,,,,,,,,,456.80997049994767,456.8248163999524,457.82460880000144,457.82460880000144,457.82460880000144,457.82460880000144,457.82460880000144,457.82460880000144,458.8085744001437,459.6767218001187,x,0,0.8618389999028295,None,958053,001,2024-11-26_16h39.59.331,PRIYANSHI.AU2220101_solo.project,2024.1.5,None,2024-11-26 16h40.05.605104 +0530,
,,60,v,,,,,12,1,61,3,459.6912382999435,,,,,,,,,,,,,,,459.67743799998425,459.6912382999435,460.69166330015287,460.69166330015287,460.69166330015287,460.69166330015287,460.69166330015287,460.69166330015287,461.69220399996266,462.64247189997695,c,0,0.9428529997821897,None,958053,001,2024-11-26_16h39.59.331,PRIYANSHI.AU2220101_solo.project,2024.1.5,None,2024-11-26 16h40.05.605104 +0530,
,,-50,x,,,,,12,2,62,1,462.65760720008984,,,,,,,,,,,,,,,462.64290790003724,462.65760720008984,463.6586718999315,463.64175010006875,463.64175010006875,463.64175010006875,463.64175010006875,463.64175010006875,464.642152100103,464.9247340001166,v,0,0.2673641999717802,None,958053,001,2024-11-26_16h39.59.331,PRIYANSHI.AU2220101_solo.project,2024.1.5,None,2024-11-26 16h40.05.605104 +0530,
,,-150,z,,,,,12,3,63,0,464.94076319993474,,,,,,,,,,,,,,,464.9252132999245,464.94076319993474,465.94082020013593,465.92488080007024,465.92488080007024,465.92488080007024,465.92488080007024,465.92488080007024,466.9239990999922,467.1251534000039,b,0,0.1938279999885708,None,958053,001,2024-11-26_16h39.59.331,PRIYANSHI.AU2220101_solo.project,2024.1.5,None,2024-11-26 16h40.05.605104 +0530,
,,50,c,,,,,12,4,64,2,467.1403820000123,,,,,,,,,,,,,,,467.12576279998757,467.1403820000123,468.1411963000428,468.1244707000442,468.1244707000442,468.1244707000442,468.1244707000442,468.1244707000442,469.12480759993196,469.6249758999329,z,0,0.4937525999266654,None,958053,001,2024-11-26_16h39.59.331,PRIYANSHI.AU2220101_solo.project,2024.1.5,None,2024-11-26 16h40.05.605104 +0530,
,,150,b,,,,,13,0,65,4,469.63980240002275,,,,,,,,,,,,,,,469.6254318000283,469.63980240002275,470.64093609992415,470.62408969993703,470.62408969993703,470.62408969993703,470.62408969993703,470.62408969993703,471.6415160000324,472.0589147999417,x,0,0.40934560005553067,None,958053,001,2024-11-26_16h39.59.331,PRIYANSHI.AU2220101_solo.project,2024.1.5,None,2024-11-26 16h40.05.605104 +0530,
,,150,b,,,,,13,1,66,4,472.0742107001133,,,,,,,,,,,,,,,472.05937339994125,472.0742107001133,473.0737437000498,473.05740789999254,473.05740789999254,473.05740789999254,473.05740789999254,473.05740789999254,474.0752692001406,474.69287030003034,c,0,0.6139929001219571,None,958053,001,2024-11-26_16h39.59.331,PRIYANSHI.AU2220101_solo.project,2024.1.5,None,2024-11-26 16h40.05.605104 +0530,
,,150,b,,,,,13,2,67,4,474.70763710001484,,,,,,,,,,,,,,,474.6935153999366,474.70763710001484,475.707846299978,475.707846299978,475.707846299978,475.707846299978,475.707846299978,475.707846299978,476.70833380008116,477.9580664001405,v,0,1.2405373000074178,None,958053,001,2024-11-26_16h39.59.331,PRIYANSHI.AU2220101_solo.project,2024.1.5,None,2024-11-26 16h40.05.605104 +0530,
,,60,v,,,,,13,3,68,3,477.97314430004917,,,,,,,,,,,,,,,477.958521499997,477.97314430004917,478.9742137999274,478.9574114000425,478.9574114000425,478.9574114000425,478.9574114000425,478.9574114000425,479.95911990012974,481.3079141001217,b,0,1.344594000140205,None,958053,001,2024-11-26_16h39.59.331,PRIYANSHI.AU2220101_solo.project,2024.1.5,None,2024-11-26 16h40.05.605104 +0530,
,,-150,z,,,,,13,4,69,0,481.3230288999621,,,,,,,,,,,,,,,481.3088002000004,481.3230288999621,482.3238510999363,482.30776210012846,482.30776210012846,482.30776210012846,482.30776210012846,482.30776210012846,483.309069900075,483.8752051999327,z,0,0.5521787998732179,None,958053,001,2024-11-26_16h39.59.331,PRIYANSHI.AU2220101_solo.project,2024.1.5,None,2024-11-26 16h40.05.605104 +0530,
,,150,b,,,,,14,0,70,4,483.89070970006287,,,,,,,,,,,,,,,483.8763874999713,483.89070970006287,484.8910499000922,484.8746907999739,484.8746907999739,484.8746907999739,484.8746907999739,484.8746907999739,485.89001790015027,488.074955600081,c,0,2.1698219999670982,None,958053,001,2024-11-26_16h39.59.331,PRIYANSHI.AU2220101_solo.project,2024.1.5,None,2024-11-26 16h40.05.605104 +0530,
,,50,c,,,,,14,1,71,2,488.09050079993904,,,,,,,,,,,,,,,488.07620050013065,488.09050079993904,489.09022730006836,489.09022730006836,489.09022730006836,489.09022730006836,489.09022730006836,489.09022730006836,490.0911189999897,490.590566100087,v,0,0.4847860001027584,None,958053,001,2024-11-26_16h39.59.331,PRIYANSHI.AU2220101_solo.project,2024.1.5,None,2024-11-26 16h40.05.605104 +0530,
,,60,v,,,,,14,2,72,3,490.6058074000757,,,,,,,,,,,,,,,490.59117790008895,490.6058074000757,491.607398299966,491.59147910005413,491.59147910005413,491.59147910005413,491.59147910005413,491.59147910005413,492.5911208000034,493.55755169992335,b,0,0.960559600032866,None,958053,001,2024-11-26_16h39.59.331,PRIYANSHI.AU2220101_solo.project,2024.1.5,None,2024-11-26 16h40.05.605104 +0530,
,,-50,x,,,,,14,3,73,1,493.57280980004,,,,,,,,,,,,,,,493.55800250009634,493.57280980004,494.5742917000316,494.5565266001504,494.5565266001504,494.5565266001504,494.5565266001504,494.5565266001504,495.55803580000065,496.10876219999045,z,0,0.5452693998813629,None,958053,001,2024-11-26_16h39.59.331,PRIYANSHI.AU2220101_solo.project,2024.1.5,None,2024-11-26 16h40.05.605104 +0530,
,,60,v,,,,,14,4,74,3,496.12361639994197,,,,,,,,,,,,,,,496.1092449000571,496.12361639994197,497.1236612999346,497.1236612999346,497.1236612999346,497.1236612999346,497.1236612999346,497.1236612999346,498.123711100081,498.6416100000497,x,0,0.5162049999926239,None,958053,001,2024-11-26_16h39.59.331,PRIYANSHI.AU2220101_solo.project,2024.1.5,None,2024-11-26 16h40.05.605104 +0530,
,,60,v,,,,,15,0,75,3,498.6561694999691,,,,,,,,,,,,,,,498.6422762000002,498.6561694999691,499.65727109997533,499.6413336000405,499.6413336000405,499.6413336000405,499.6413336000405,499.6413336000405,500.657512600068,502.79088460002095,v,0,2.120825699996203,None,958053,001,2024-11-26_16h39.59.331,PRIYANSHI.AU2220101_solo.project,2024.1.5,None,2024-11-26 16h40.05.605104 +0530,
,,-50,x,,,,,15,1,76,1,502.8061419001315,,,,,,,,,,,,,,,502.79136239993386,502.8061419001315,503.8069850001484,503.79214300005697,503.79214300005697,503.79214300005697,503.79214300005697,503.79214300005697,504.7912729999516,505.1235193000175,b,0,0.3186049999203533,None,958053,001,2024-11-26_16h39.59.331,PRIYANSHI.AU2220101_solo.project,2024.1.5,None,2024-11-26 16h40.05.605104 +0530,
,,60,v,,,,,15,2,77,3,505.13932710001245,,,,,,,,,,,,,,,505.1244300000835,505.13932710001245,506.13956149993464,506.13956149993464,506.13956149993464,506.13956149993464,506.13956149993464,506.13956149993464,507.1396385000553,508.6247179999482,x,0,1.4725911000277847,None,958053,001,2024-11-26_16h39.59.331,PRIYANSHI.AU2220101_solo.project,2024.1.5,None,2024-11-26 16h40.05.605104 +0530,
,,150,b,,,,,15,3,78,4,508.6409617001191,,,,,,,,,,,,,,,508.62533730012365,508.6409617001191,509.6566606000997,509.6393210000824,509.6393210000824,509.6393210000824,509.6393210000824,509.6393210000824,510.6393818000797,512.0405949000269,v,0,1.388445199932903,None,958053,001,2024-11-26_16h39.59.331,PRIYANSHI.AU2220101_solo.project,2024.1.5,None,2024-11-26 16h40.05.605104 +0530,
,,-50,x,,,,,15,4,79,1,512.0565113001503,,,,,,,,,,,,,,,512.0411515000742,512.0565113001503,513.0572003000416,513.0400100001134,513.0400100001134,513.0400100001134,513.0400100001134,513.0400100001134,514.0562474001199,515.6927337001543,z,0,1.633622899884358,None,958053,001,2024-11-26_16h39.59.331,PRIYANSHI.AU2220101_solo.project,2024.1.5,None,2024-11-26 16h40.05.605104 +0530,
,,-50,x,,,,,16,0,80,1,515.7064893001225,,,,,,,,,,,,,,,515.6934283999726,515.7064893001225,516.7077862999868,516.7077862999868,516.7077862999868,516.7077862999868,516.7077862999868,516.7077862999868,517.7060599001125,519.1905779000372,c,0,1.4761183999944478,None,958053,001,2024-11-26_16h39.59.331,PRIYANSHI.AU2220101_solo.project,2024.1.5,None,2024-11-26 16h40.05.605104 +0530,
,,50,c,,,,,16,1,81,2,519.2062190000433,,,,,,,,,,,,,,,519.1911462999415,519.2062190000433,520.2067832001485,520.1903737001121,520.1903737001121,520.1903737001121,520.1903737001121,520.1903737001121,521.2057336999569,522.9730166001245,z,0,1.7509403999429196,None,958053,001,2024-11-26_16h39.59.331,PRIYANSHI.AU2220101_solo.project,2024.1.5,None,2024-11-26 16h40.05.605104 +0530,
,,150,b,,,,,16,2,82,4,522.9892728000414,,,,,,,,,,,,,,,522.9734474001452,522.9892728000414,523.9907370000146,523.972946099937,523.972946099937,523.972946099937,523.972946099937,523.972946099937,524.9733227000106,526.0730045000091,x,0,1.090054600033909,None,958053,001,2024-11-26_16h39.59.331,PRIYANSHI.AU2220101_solo.project,2024.1.5,None,2024-11-26 16h40.05.605104 +0530,
,,60,v,,,,,16,3,83,3,526.0883800000884,,,,,,,,,,,,,,,526.0738242000807,526.0883800000884,527.089640500024,527.0734556999523,527.0734556999523,527.0734556999523,527.0734556999523,527.0734556999523,528.0726133999415,528.9745396999642,v,0,0.898771199863404,None,958053,001,2024-11-26_16h39.59.331,PRIYANSHI.AU2220101_solo.project,2024.1.5,None,2024-11-26 16h40.05.605104 +0530,
,,-50,x,,,,,16,4,84,1,528.9885309999809,,,,,,,,,,,,,,,528.9749779999256,528.9885309999809,529.9901539999992,529.9901539999992,529.9901539999992,529.9901539999992,529.9901539999992,529.9901539999992,530.990176100051,532.3561684000306,b,0,1.3532904000021517,None,958053,001,2024-11-26_16h39.59.331,PRIYANSHI.AU2220101_solo.project,2024.1.5,None,2024-11-26 16h40.05.605104 +0530,
,,60,v,,,,,17,0,85,3,532.372236300027,,,,,,,,,,,,,,,532.3569180001505,532.372236300027,533.3720818001311,533.3554690999445,533.3554690999445,533.3554690999445,533.3554690999445,533.3554690999445,534.3559841001406,535.4567917999811,z,0,1.0841701999306679,None,958053,001,2024-11-26_16h39.59.331,PRIYANSHI.AU2220101_solo.project,2024.1.5,None,2024-11-26 16h40.05.605104 +0530,
,,60,v,,,,,17,1,86,3,535.4729168999474,,,,,,,,,,,,,,,535.4574859000277,535.4729168999474,536.4719146001153,536.4719146001153,536.4719146001153,536.4719146001153,536.4719146001153,536.4719146001153,537.4722543000244,538.1242655001115,c,0,0.6453825000207871,None,958053,001,2024-11-26_16h39.59.331,PRIYANSHI.AU2220101_solo.project,2024.1.5,None,2024-11-26 16h40.05.605104 +0530,
,,-150,z,,,,,17,2,87,0,538.1389514999464,,,,,,,,,,,,,,,538.124947299948,538.1389514999464,539.1402970000636,539.1402970000636,539.1402970000636,539.1402970000636,539.1402970000636,539.1402970000636,540.1390778000932,540.1563661000691,v,0,0.0023805999662727118,None,958053,001,2024-11-26_16h39.59.331,PRIYANSHI.AU2220101_solo.project,2024.1.5,None,2024-11-26 16h40.05.605104 +0530,
,,50,c,,,,,17,3,88,2,540.1720692000818,,,,,,,,,,,,,,,540.1573700001463,540.1720692000818,541.1724589001387,541.1558078001253,541.1558078001253,541.1558078001253,541.1558078001253,541.1558078001253,542.1732545001432,544.7563571000937,z,0,2.5724271000362933,None,958053,001,2024-11-26_16h39.59.331,PRIYANSHI.AU2220101_solo.project,2024.1.5,None,2024-11-26 16h40.05.605104 +0530,
,,-150,z,,,,,17,4,89,0,544.7718563000672,,,,,,,,,,,,,,,544.7575890000444,544.7718563000672,545.7728997000959,545.7556058999617,545.7556058999617,545.7556058999617,545.7556058999617,545.7556058999617,546.7733454001136,547.0747022000141,x,0,0.2961434000171721,None,958053,001,2024-11-26_16h39.59.331,PRIYANSHI.AU2220101_solo.project,2024.1.5,None,2024-11-26 16h40.05.605104 +0530,
,,-150,z,,,,,18,0,90,0,547.0889097999316,,,,,,,,,,,,,,,547.0751964999363,547.0889097999316,548.0887033001054,548.0887033001054,548.0887033001054,548.0887033001054,548.0887033001054,548.0887033001054,549.0901792999357,549.3916410000529,c,0,0.29863480012863874,None,958053,001,2024-11-26_16h39.59.331,PRIYANSHI.AU2220101_solo.project,2024.1.5,None,2024-11-26 16h40.05.605104 +0530,
,,150,b,,,,,18,1,91,4,549.4055319000036,,,,,,,,,,,,,,,549.3921791999601,549.4055319000036,550.4058471000753,550.4058471000753,550.4058471000753,550.4058471000753,550.4058471000753,550.4058471000753,551.4061112999916,552.4891381000634,b,0,1.06577070010826,None,958053,001,2024-11-26_16h39.59.331,PRIYANSHI.AU2220101_solo.project,2024.1.5,None,2024-11-26 16h40.05.605104 +0530,
,,-150,z,,,,,18,2,92,0,552.5050753001124,,,,,,,,,,,,,,,552.4896033001132,552.5050753001124,553.5058113001287,553.4889418999664,553.4889418999664,553.4889418999664,553.4889418999664,553.4889418999664,554.4897545001004,554.9064195000101,z,0,0.4044444002211094,None,958053,001,2024-11-26_16h39.59.331,PRIYANSHI.AU2220101_solo.project,2024.1.5,None,2024-11-26 16h40.05.605104 +0530,
,,50,c,,,,,18,3,93,2,554.9221377000213,,,,,,,,,,,,,,,554.906848100014,554.9221377000213,555.9224380999804,555.9053305999842,555.9053305999842,555.9053305999842,555.9053305999842,555.9053305999842,556.9053183000069,557.7257415000349,c,0,0.8172377001028508,None,958053,001,2024-11-26_16h39.59.331,PRIYANSHI.AU2220101_solo.project,2024.1.5,None,2024-11-26 16h40.05.605104 +0530,
,,50,c,,,,,18,4,94,2,557.7389525000472,,,,,,,,,,,,,,,557.7273166999221,557.7389525000472,558.7404805000406,558.7404805000406,558.7404805000406,558.7404805000406,558.7404805000406,558.7404805000406,559.7381893999409,560.8725397000089,b,0,1.1254475000314415,None,958053,001,2024-11-26_16h39.59.331,PRIYANSHI.AU2220101_solo.project,2024.1.5,None,2024-11-26 16h40.05.605104 +0530,
,,-150,z,,,,,19,0,95,0,560.8876603001263,,,,,,,,,,,,,,,560.8731953999959,560.8876603001263,561.8892789999954,561.8723294001538,561.8723294001538,561.8723294001538,561.8723294001538,561.8723294001538,562.8896017000079,563.8219014999922,z,0,0.9165595998056233,None,958053,001,2024-11-26_16h39.59.331,PRIYANSHI.AU2220101_solo.project,2024.1.5,None,2024-11-26 16h40.05.605104 +0530,
,,50,c,,,,,19,1,96,2,563.8377863001078,,,,,,,,,,,,,,,563.8225702000782,563.8377863001078,564.8381209000945,564.821874300018,564.821874300018,564.821874300018,564.821874300018,564.821874300018,565.822254100116,566.1904025000986,b,0,0.3629701000172645,None,958053,001,2024-11-26_16h39.59.331,PRIYANSHI.AU2220101_solo.project,2024.1.5,None,2024-11-26 16h40.05.605104 +0530,
,,-150,z,,,,,19,2,97,0,566.205356700113,,,,,,,,,,,,,,,566.1909072000999,566.205356700113,567.2052738000639,567.2052738000639,567.2052738000639,567.2052738000639,567.2052738000639,567.2052738000639,568.2045267000794,568.9384961000178,c,0,0.7206630997825414,None,958053,001,2024-11-26_16h39.59.331,PRIYANSHI.AU2220101_solo.project,2024.1.5,None,2024-11-26 16h40.05.605104 +0530,
,,-50,x,,,,,19,3,98,1,568.9544768000487,,,,,,,,,,,,,,,568.9392282001209,568.9544768000487,569.9561793999746,569.9389138000552,569.9389138000552,569.9389138000552,569.9389138000552,569.9389138000552,570.9385570001323,572.3058239000384,b,0,1.3561432000715286,None,958053,001,2024-11-26_16h39.59.331,PRIYANSHI.AU2220101_solo.project,2024.1.5,None,2024-11-26 16h40.05.605104 +0530,
,,50,c,,,,,19,4,99,2,572.3212876000907,,,,,,,,,,,,,,,572.3065905999392,572.3212876000907,573.3224720000289,573.3052267001476,573.3052267001476,573.3052267001476,573.3052267001476,573.3052267001476,574.3223496000282,575.4556966000237,v,0,1.1241282001137733,None,958053,001,2024-11-26_16h39.59.331,PRIYANSHI.AU2220101_solo.project,2024.1.5,None,2024-11-26 16h40.05.605104 +0530,
